ability	subjectN	subjectOG	trial	stim	order	condition	resp_1	resp_2	response	error	resp_num	RT	init_time	distractor	rt	initTime	DV_inmot	DV_velmax	DV_velmax_start	DV_dist	DV_ADavg	DV_AUC	DV_xflp_tot	DV_ang_tot
1	2	10	1	The children like sliding down the slide.wav	2	practice	~The children like sliding down the slide right.jpg	~The children like sliding down the slide wrong.jpg	~The children like sliding down the slide right.jpg	0	1	2360	423	2	2360.000000	908.000000	1452.000000	4457.433973	2204.000000	853.453052	219.397351	0.515720	0.000000	15.000000
1	2	10	2	The classmates are holding hands.wav	3	practice	~The classmates are holding hands wrong.jpg	~The classmates are holding hands right.jpg	~The classmates are holding hands right.jpg	0	2	1587	1415	1	1587.000000	1415.000000	172.000000	7503.273087	1477.000000	958.659060	281.798713	0.392207	0.000000	3.000000
1	2	10	3	The housewife is washing the car.wav	4	practice	~The housewife is washing the car wrong.jpg	~The housewife is washing the car right.jpg	~The housewife is washing the car wrong.jpg	1	1	1431	853	1	1431.000000	1056.000000	375.000000	4662.656813	1197.000000	805.193228	166.791209	0.524002	0.000000	7.000000
1	2	10	4	The person shivering caught a cold.wav	5	practice	~The person shivering caught a cold right.jpg	~The person shivering caught a cold wrong.jpg	~The person shivering caught a cold right.jpg	0	1	2055	56	2	2055.000000	56.000000	1999.000000	5992.555198	1977.000000	770.663929	143.878743	0.603266	0.000000	6.000000
1	2	10	5	The policeman caught a theif.wav	6	practice	~The policeman caught a theif right.jpg	~The policeman caught a theif wrong.jpg	~The policeman caught a theif right.jpg	0	1	1290	306	2	1290.000000	337.000000	953.000000	5179.383636	1165.000000	867.899753	193.451220	0.686356	1.000000	1.000000
1	2	10	6	The secretary answered the call.wav	7	practice	~The secretary answered the call right.jpg	~The secretary answered the call wrong.jpg	~The secretary answered the call right.jpg	0	1	1977	196	2	1977.000000	196.000000	1781.000000	3430.131900	1055.000000	923.364555	80.436698	0.687126	3.000000	6.000000
1	2	10	7	The worker has a white mustache.wav	8	practice	~The worker has a white mustache wrong.jpg	~The worker has a white mustache right.jpg	~The worker has a white mustache right.jpg	0	2	2383	134	1	2383.000000	149.000000	2234.000000	6139.213209	2305.000000	792.340445	164.845155	0.635405	1.000000	3.000000
1	2	10	8	The postman is holding a letter.wav	9	practice	~The postman is holding a letter right.jpg	~The postman is holding a letter wrong.jpg	~The postman is holding a letter right.jpg	0	1	1055	962	2	1055.000000	962.000000	93.000000	9477.707095	977.000000	781.274309	175.492537	0.634537	0.000000	0.000000
1	2	10	9	The pig was followed by the hen.wav	11	passive	~The pig was followed by the hen wrong.jpg	~The pig was followed by the hen right.jpg	~The pig was followed by the hen right.jpg	0	2	2384	166	1	2384.000000	166.000000	2218.000000	3545.476723	2166.000000	861.285347	200.774510	0.643128	1.000000	3.000000
1	2	10	10	The athlete jumping rope is sweating.wav	12	RC	~The athlete jumping rope is sweating right.jpg	~The athlete jumping rope is sweating wrong.jpg	~The athlete jumping rope is sweating right.jpg	0	1	1383	290	2	1383.000000	306.000000	1077.000000	2999.320566	1102.000000	1040.821898	223.738636	0.769295	1.000000	22.000000
1	2	10	11	The lamp is next to the dresser.wav	13	preposition	~The lamp is next to the dresser wrong.jpg	~The lamp is next to the dresser right.jpg	~The lamp is next to the dresser right.jpg	0	2	1539	118	1	1539.000000	149.000000	1390.000000	5392.516623	1461.000000	825.732355	169.918367	0.844024	3.000000	9.000000
1	2	10	12	The guy fixing the fence is using tools.wav	14	RC	~The guy fixing the fence is using tools right.jpg	~The guy fixing the fence is using tools wrong.jpg	~The guy fixing the fence is using tools right.jpg	0	1	1791	57	2	1791.000000	73.000000	1718.000000	4524.123800	1698.000000	1000.059032	221.359649	0.880407	2.000000	22.000000
1	2	10	13	The desk is against the window.wav	15	preposition	~The desk is against the window wrong.jpg	~The desk is against the window right.jpg	~The desk is against the window right.jpg	0	2	1977	40	1	1961.000000	71.000000	1890.000000	4357.271771	1883.000000	847.242961	177.548000	0.894756	2.000000	10.000000
1	2	10	14	The hero is killed by the robber.wav	16	passive	~The hero is killed by the robber wrong.jpg	~The hero is killed by the robber right.jpg	~The hero is killed by the robber right.jpg	0	2	2165	56	1	2165.000000	72.000000	2093.000000	5029.905367	2087.000000	962.087709	220.920290	0.783713	2.000000	22.000000
1	2	10	15	The cloud hides the sun.wav	17	declarative	~The sun is hidden by the cloud right.jpg	~The sun is hidden by the cloud wrong.jpg	~The sun is hidden by the cloud right.jpg	0	1	2229	88	2	2229.000000	135.000000	2094.000000	7107.797955	2151.000000	897.026497	211.556338	0.836098	3.000000	15.000000
1	2	10	16	The princess slaps the prince.wav	18	declarative	~The prince is slapped by the princess wrong.jpg	~The prince is slapped by the princess right.jpg	~The prince is slapped by the princess right.jpg	0	2	1494	72	1	1494.000000	88.000000	1406.000000	6565.507095	1416.000000	926.423998	201.910526	0.718386	4.000000	4.000000
1	2	10	17	The boss left two keys for the janitor.wav	19	dative	~The boss left two keys for the janitor right.jpg	~The boss left two keys for the janitor wrong.jpg	~The boss left two keys for the janitor right.jpg	0	1	2774	72	2	2774.000000	103.000000	2671.000000	2849.162612	2477.000000	1003.380157	249.733404	0.758047	1.000000	28.000000
1	2	10	18	The maid sweeping the floor has an apron.wav	20	RC	~The maid sweeping the floor has an apron wrong.jpg	~The maid sweeping the floor has an apron right.jpg	~The maid sweeping the floor has an apron right.jpg	0	2	1742	71	1	1742.000000	102.000000	1640.000000	5530.852607	1664.000000	882.209176	190.252252	0.750110	1.000000	21.000000
1	2	10	19	The niece sent a letter to her uncle.wav	21	dative	~The niece sent a letter to her uncle wrong.jpg	~The niece sent a letter to her uncle right.jpg	~The niece sent a letter to her uncle right.jpg	0	2	2025	197	1	2025.000000	229.000000	1796.000000	5650.149435	1947.000000	956.943403	160.112403	0.738756	2.000000	2.000000
1	2	10	20	The ball is in front of the box.wav	22	preposition	~The ball is in front of the box right.jpg	~The ball is in front of the box wrong.jpg	~The ball is in front of the box right.jpg	0	1	1711	40	2	1711.000000	56.000000	1655.000000	4814.411425	1633.000000	967.227692	208.701835	0.815995	2.000000	4.000000
1	2	10	21	The hamster is outside the cage.wav	23	preposition	~The hamster is outside the cage wrong.jpg	~The hamster is outside the cage right.jpg	~The hamster is outside the cage right.jpg	0	2	1462	103	1	1462.000000	150.000000	1312.000000	8527.259287	1384.000000	967.328656	214.543011	0.768218	3.000000	5.000000
1	2	10	22	The farmer returned cups to his neighbor.wav	24	dative	~The farmer returned cups to his neighbor wrong.jpg	~The farmer returned cups to his neighbor right.jpg	~The farmer returned cups to his neighbor right.jpg	0	2	2852	41	1	2852.000000	72.000000	2780.000000	4936.019800	2774.000000	878.052464	171.197802	0.803425	2.000000	24.000000
1	2	10	23	The student drawing maps has glasses.wav	25	RC	~The student drawing maps has glasses wrong.jpg	~The student drawing maps has glasses right.jpg	~The student drawing maps has glasses right.jpg	0	2	1727	87	1	1727.000000	118.000000	1609.000000	4734.303492	1649.000000	915.312736	195.854545	0.742117	2.000000	8.000000
1	2	10	24	The nurse drying her hair is singing.wav	26	RC	~The nurse drying her hair is singing right.jpg	~The nurse drying her hair is singing wrong.jpg	~The nurse drying her hair is singing right.jpg	0	1	2010	41	2	2010.000000	88.000000	1922.000000	4486.106079	1931.000000	990.414574	190.812500	0.825246	3.000000	17.000000
1	2	10	25	The driver explained the route to the girl.wav	27	dative	~The driver explained the route to the girl wrong.jpg	~The driver explained the route to the girl right.jpg	~The driver explained the route to the girl right.jpg	0	2	2086	102	1	2086.000000	211.000000	1875.000000	4019.950553	2008.000000	872.071199	160.417293	0.793963	2.000000	30.000000
1	2	10	26	The elephant was washed by the worker.wav	28	passive	~The elephant was washed by the worker wrong.jpg	~The elephant was washed by the worker right.jpg	~The elephant was washed by the worker right.jpg	0	2	1838	57	1	1838.000000	104.000000	1734.000000	5902.404694	1760.000000	909.439435	199.760684	0.912006	3.000000	11.000000
1	2	10	27	The father lent money to his daughter.wav	29	dative	~The father lent money to his daughter right.jpg	~The father lent money to his daughter wrong.jpg	~The father lent money to his daughter wrong.jpg	1	2	3102	56	2	3086.000000	149.000000	2937.000000	3790.146747	3008.000000	1042.118217	155.703046	0.862445	3.000000	19.000000
1	2	10	28	The kid tickles the mom.wav	30	declarative	~The mom was tickled by her kid right.jpg	~The mom was tickled by her kid wrong.jpg	~The mom was tickled by her kid right.jpg	0	1	1400	119	2	1400.000000	135.000000	1265.000000	5733.737806	1322.000000	949.627163	214.904494	0.731647	1.000000	3.000000
1	2	10	29	The basket is on the blanket.wav	31	preposition	~The basket is on the blanket right.jpg	~The basket is on the blanket wrong.jpg	~The basket is on the blanket right.jpg	0	1	1556	134	2	1556.000000	181.000000	1375.000000	5045.858512	1447.000000	850.510052	155.136364	0.690193	2.000000	18.000000
1	2	10	30	The chair is below the window.wav	32	preposition	~The chair is below the window wrong.jpg	~The chair is below the window right.jpg	~The chair is below the window right.jpg	0	2	1619	57	1	1619.000000	166.000000	1453.000000	5768.919810	1541.000000	886.435374	183.296117	0.869167	3.000000	21.000000
1	2	10	31	The cafe is at the corner.wav	33	preposition	~The cafe is at the corner wrong.jpg	~The cafe is at the corner right.jpg	~The cafe is at the corner right.jpg	0	2	1742	86	1	1742.000000	102.000000	1640.000000	5445.950359	1664.000000	863.996860	166.725225	0.855004	2.000000	20.000000
1	2	10	32	The grandmother finds the grandson.wav	34	declarative	~The grandson is found by his grandmother wrong.jpg	~The grandson is found by his grandmother right.jpg	~The grandson is found by his grandmother right.jpg	0	2	2492	55	1	2492.000000	211.000000	2281.000000	2706.541929	2414.000000	1096.271477	211.556604	0.821649	5.000000	29.000000
1	2	10	33	The student watering flowers loves plants.wav	35	RC	~The student watering flowers loves plants wrong.jpg	~The student watering flowers loves plants right.jpg	~The student watering flowers loves plants right.jpg	0	2	1806	41	1	1806.000000	88.000000	1718.000000	3774.673446	1728.000000	932.203481	181.265217	0.925913	1.000000	3.000000
1	2	10	34	The gentleman bought flowers for his love.wav	36	dative	~The gentleman bought flowers for his love right.jpg	~The gentleman bought flowers for his love wrong.jpg	~The gentleman bought flowers for his love right.jpg	0	1	1618	87	2	1602.000000	165.000000	1437.000000	2609.450354	1477.000000	1012.009830	157.637255	0.750648	2.000000	18.000000
1	2	10	35	The teacher writing words likes spelling.wav	37	RC	~The teacher writing words likes spelling wrong.jpg	~The teacher writing words likes spelling right.jpg	~The teacher writing words likes spelling wrong.jpg	1	1	1602	102	1	1602.000000	149.000000	1453.000000	3998.936939	1508.000000	978.261312	195.352941	0.848764	1.000000	17.000000
1	2	10	36	The dog was bitten by the snake.wav	38	passive	~The dog was bitten by the snake right.jpg	~The dog was bitten by the snake wrong.jpg	~The dog was bitten by the snake right.jpg	0	1	2727	87	2	2727.000000	181.000000	2546.000000	5028.400010	2649.000000	827.218408	161.827586	0.760874	2.000000	52.000000
1	2	10	37	The monkey is under the box.wav	39	preposition	~The monkey is under the box wrong.jpg	~The monkey is under the box right.jpg	~The monkey is under the box right.jpg	0	2	1821	56	1	1805.000000	102.000000	1703.000000	5930.884005	1727.000000	956.130872	225.404348	0.848605	3.000000	17.000000
1	2	10	38	The aunt is assisted by her niece.wav	40	passive	~The aunt is assisted by her niece wrong.jpg	~The aunt is assisted by her niece right.jpg	~The aunt is assisted by her niece right.jpg	0	2	2024	134	1	2024.000000	134.000000	1890.000000	5320.565680	1946.000000	958.146855	194.620155	0.843838	2.000000	16.000000
1	2	10	39	The puppy was licked by the kitten.wav	41	passive	~The puppy was licked by the kitten right.jpg	~The puppy was licked by the kitten wrong.jpg	~The puppy was licked by the kitten right.jpg	0	1	1695	477	2	1695.000000	540.000000	1155.000000	3811.308277	1617.000000	932.612834	226.361111	0.726051	2.000000	12.000000
1	2	10	40	The panda is colored by the monkey.wav	42	passive	~The panda is colored by the monkey wrong.jpg	~The panda is colored by the monkey right.jpg	~The panda is colored by the monkey right.jpg	0	2	2071	102	1	2071.000000	134.000000	1937.000000	6535.494885	1993.000000	999.798688	218.613636	0.938640	3.000000	23.000000
1	2	10	41	The arrow is between the squares.wav	43	preposition	~The arrow is between the squares right.jpg	~The arrow is between the squares wrong.jpg	~The arrow is between the squares right.jpg	0	1	1432	89	2	1432.000000	104.000000	1328.000000	5657.079917	1354.000000	936.631114	223.608696	0.803348	3.000000	15.000000
1	2	10	42	The bus hits the motorcycle.wav	44	declarative	~The motercycle is hit by the bus wrong.jpg	~The motercycle is hit by the bus right.jpg	~The motercycle is hit by the bus right.jpg	0	2	1837	40	1	1837.000000	197.000000	1640.000000	3378.048937	1759.000000	948.987401	150.252137	0.809313	3.000000	15.000000
1	2	10	43	The boy is pushed by his sister.wav	45	passive	~The boy is pushed by his sister right.jpg	~The boy is pushed by his sister wrong.jpg	~The boy is pushed by his sister right.jpg	0	1	1602	40	2	1602.000000	196.000000	1406.000000	4650.855253	1524.000000	855.942700	172.764706	0.766966	2.000000	12.000000
1	2	10	44	The bird watches the alligator.wav	46	declarative	~The alligator is watched by the bird right.jpg	~The alligator is watched by the bird wrong.jpg	~The alligator is watched by the bird right.jpg	0	1	2025	72	2	2025.000000	119.000000	1906.000000	4223.468853	1946.000000	857.502361	170.577519	0.746077	0.000000	52.000000
1	2	10	45	The chicken was scared by the crow.wav	47	passive	~The chicken was scared by the crow wrong.jpg	~The chicken was scared by the crow right.jpg	~The chicken was scared by the crow right.jpg	0	2	1946	118	1	1946.000000	149.000000	1797.000000	7031.546881	1852.000000	944.469873	248.790323	0.811546	1.000000	31.000000
1	2	10	46	The coach threw the bottle to the boy.wav	48	dative	~The coach threw the bottle to the boy wrong.jpg	~The coach threw the bottle to the boy right.jpg	~The coach threw the bottle to the boy right.jpg	0	2	2601	196	1	2601.000000	180.000000	2421.000000	4490.135119	2523.000000	970.016861	187.439759	0.932300	2.000000	22.000000
1	2	10	47	The car is inside the garage.wav	49	preposition	~The car is inside the garage right.jpg	~The car is inside the garage wrong.jpg	~The car is inside the garage right.jpg	0	1	1305	383	2	1305.000000	383.000000	922.000000	4741.242923	1227.000000	875.058255	177.186747	0.815636	2.000000	14.000000
1	2	10	48	The waiter carrying trays likes food.wav	50	RC	~The waiter carrying trays likes food right.jpg	~The waiter carrying trays likes food wrong.jpg	~The waiter carrying trays likes food right.jpg	0	1	1462	119	2	1462.000000	119.000000	1343.000000	5973.786402	1384.000000	1011.490030	192.301075	0.877641	4.000000	16.000000
1	2	10	49	The lady stiring juice feels thirsty.wav	51	RC	~The lady stiring juice feels thirsty right.jpg	~The lady stiring juice feels thirsty wrong.jpg	~The lady stiring juice feels thirsty right.jpg	0	1	1681	40	2	1681.000000	87.000000	1594.000000	4367.699429	1603.000000	933.879876	158.261682	0.796892	2.000000	18.000000
1	2	10	50	The cat attacks the fireman.wav	52	declarative	~The fireman is attacked by the cat right.jpg	~The fireman is attacked by the cat wrong.jpg	~The fireman is attacked by the cat right.jpg	0	1	2117	102	2	2117.000000	133.000000	1984.000000	5118.354176	2039.000000	1197.431530	199.411111	1.094899	3.000000	11.000000
1	2	10	51	The clock is by the entrance door.wav	53	preposition	~The clock is by the entrance door right.jpg	~The clock is by the entrance door wrong.jpg	~The clock is by the entrance door right.jpg	0	1	1367	71	2	1367.000000	87.000000	1280.000000	5406.957418	1289.000000	896.483456	187.632184	0.823609	1.000000	15.000000
1	2	10	52	The child delivered mail to the woman.wav	54	dative	~The child delivered mail to the woman right.jpg	~The child delivered mail to the woman wrong.jpg	~The child delivered mail to the woman right.jpg	0	1	2461	212	2	2461.000000	227.000000	2234.000000	4362.650452	2383.000000	938.221611	162.649682	0.814935	2.000000	38.000000
1	2	10	53	The bird is above the big tree.wav	55	preposition	~The bird is above the big tree right.jpg	~The bird is above the big tree wrong.jpg	~The bird is above the big tree right.jpg	0	1	1462	103	2	1462.000000	119.000000	1343.000000	5174.484887	1384.000000	944.807381	200.655914	0.757605	1.000000	17.000000
1	2	10	54	The maid folding clothes is wearing braclets.wav	56	RC	~The maid folding clothes is wearing braclets right.jpg	~The maid folding clothes is wearing braclets wrong.jpg	~The maid folding clothes is wearing braclets right.jpg	0	1	1291	72	2	1291.000000	88.000000	1203.000000	6190.663119	1213.000000	920.288229	178.500000	0.723231	2.000000	22.000000
1	2	10	55	The woman poured juice for the guest.wav	57	dative	~The woman poured juice for the guest right.jpg	~The woman poured juice for the guest wrong.jpg	~The woman poured juice for the guest right.jpg	0	1	1711	71	2	1711.000000	87.000000	1624.000000	4514.083149	1633.000000	869.747955	166.899083	0.691639	0.000000	16.000000
1	2	10	56	The fish eats the fisherman.wav	58	declarative	~The fisherman is eaten by the fish wrong.jpg	~The fisherman is eaten by the fish right.jpg	~The fisherman is eaten by the fish right.jpg	0	2	1494	41	1	1494.000000	56.000000	1438.000000	6627.495882	1415.000000	985.511422	235.236842	0.976330	1.000000	39.000000
1	2	10	57	The cabinet is near the chalkboard.wav	59	preposition	~The cabinet is near the chalkboard right.jpg	~The cabinet is near the chalkboard wrong.jpg	~The cabinet is near the chalkboard right.jpg	0	1	1899	87	2	1899.000000	103.000000	1796.000000	4808.377732	1821.000000	984.360783	181.276860	0.845979	3.000000	15.000000
1	2	10	58	The baby touches the hamster.wav	60	declarative	~The hamster is touched by the baby right.jpg	~The hamster is touched by the baby wrong.jpg	~The hamster is touched by the baby right.jpg	0	1	1805	118	2	1789.000000	149.000000	1640.000000	4532.385184	1711.000000	867.999479	151.956140	0.744045	0.000000	34.000000
1	2	10	59	The seagull chases the tourist.wav	61	declarative	~The tourist is chased by the seagull wrong.jpg	~The tourist is chased by the seagull right.jpg	~The tourist is chased by the seagull right.jpg	0	2	1649	181	1	1649.000000	181.000000	1468.000000	5313.144609	1524.000000	954.619796	199.361905	0.749397	3.000000	17.000000
1	2	10	60	The rabbit is in the red box.wav	62	preposition	~The rabbit is in the red box wrong.jpg	~The rabbit is in the red box right.jpg	~The rabbit is in the red box right.jpg	0	2	1493	87	1	1493.000000	87.000000	1406.000000	5193.602247	1415.000000	1052.222067	165.931579	0.932387	6.000000	10.000000
1	2	10	61	The girl using a phone needs a cab.wav	63	RC	~The girl using a phone needs a cab wrong.jpg	~The girl using a phone needs a cab right.jpg	~The girl using a phone needs a cab right.jpg	0	2	2556	104	1	2556.000000	151.000000	2405.000000	6591.653091	2478.000000	942.354943	227.506098	0.887074	1.000000	37.000000
1	2	10	62	The turtle was carried by the sheep.wav	64	passive	~The turtle was carried by the sheep right.jpg	~The turtle was carried by the sheep wrong.jpg	~The turtle was carried by the sheep right.jpg	0	1	1789	118	2	1789.000000	134.000000	1655.000000	4020.738897	1711.000000	896.445246	178.201754	0.898476	1.000000	19.000000
1	2	10	63	The man cutting a board makes tables.wav	65	RC	~The man cutting a board makes tables right.jpg	~The man cutting a board makes tables wrong.jpg	~The man cutting a board makes tables right.jpg	0	1	1431	41	2	1431.000000	56.000000	1375.000000	6313.472216	1353.000000	1004.108522	225.472527	0.687408	0.000000	16.000000
1	2	10	64	The daughter made a sweater for her dad.wav	66	dative	~The daughter made a sweater for her dad right.jpg	~The daughter made a sweater for her dad wrong.jpg	~The daughter made a sweater for her dad right.jpg	0	1	1978	134	2	1978.000000	165.000000	1813.000000	5311.993697	1899.000000	1018.001723	204.015873	0.917206	2.000000	26.000000
1	2	10	65	The clerk handed change to the shopper.wav	67	dative	~The clerk handed change to the shopper right.jpg	~The clerk handed change to the shopper wrong.jpg	~The clerk handed change to the shopper right.jpg	0	1	1790	259	2	1790.000000	274.000000	1516.000000	5142.968710	1712.000000	950.283936	257.043478	0.740965	2.000000	14.000000
1	2	10	66	The grandpaw told stories to the boy.wav	68	dative	~The grandpaw told stories to the boy right.jpg	~The grandpaw told stories to the boy wrong.jpg	~The grandpaw told stories to the boy right.jpg	0	1	2040	274	2	2040.000000	290.000000	1750.000000	3121.306831	1962.000000	1010.869990	191.415385	0.846917	3.000000	15.000000
1	2	10	67	The chef was suprised by the mailman.wav	69	passive	~The chef was suprised by the mailman right.jpg	~The chef was suprised by the mailman wrong.jpg	~The chef was suprised by the mailman right.jpg	0	1	2399	212	2	2399.000000	212.000000	2187.000000	5512.077001	2321.000000	920.960321	196.474026	0.899926	1.000000	11.000000
1	2	10	68	The nurse hugs the surgeon.wav	70	declarative	~The surgeon is hugged by the nurse wrong.jpg	~The surgeon is hugged by the nurse right.jpg	~The surgeon is hugged by the nurse right.jpg	0	2	1478	197	1	1478.000000	197.000000	1281.000000	7274.668263	1400.000000	937.147489	241.361702	0.798292	1.000000	11.000000
1	2	10	69	The couple reading the map is lost.wav	71	RC	~The couple reading the map is lost wrong.jpg	~The couple reading the map is lost right.jpg	~The couple reading the map is lost right.jpg	0	2	1884	150	1	1869.000000	150.000000	1719.000000	5259.959580	1790.000000	799.974563	111.012605	0.700997	2.000000	16.000000
1	2	10	70	The tiger lifts the bear.wav	72	declarative	~The bear was lifted by the tiger right.jpg	~The bear was lifted by the tiger wrong.jpg	~The bear was lifted by the tiger right.jpg	0	1	1399	134	2	1399.000000	149.000000	1250.000000	5627.402156	1321.000000	883.330305	168.235955	0.722032	1.000000	9.000000
1	2	10	71	The zebra kicks the horse.wav	73	declarative	~The horse is kicked by the zebra right.jpg	~The horse is kicked by the zebra wrong.jpg	~The horse is kicked by the zebra right.jpg	0	1	1228	87	2	1228.000000	119.000000	1109.000000	6051.903768	1150.000000	932.388594	166.294872	0.671607	0.000000	16.000000
1	2	10	72	The boxer is punched by the kangeroo.wav	74	passive	~The boxer is punched by the kangeroo wrong.jpg	~The boxer is punched by the kangeroo right.jpg	~The boxer is punched by the kangeroo right.jpg	0	2	1961	40	1	1946.000000	352.000000	1594.000000	7193.876780	1868.000000	1115.322611	274.104839	0.975130	2.000000	10.000000
1	2	10	73	The duck was led by the penguin.wav	75	passive	~The duck was led by the penguin right.jpg	~The duck was led by the penguin wrong.jpg	~The duck was led by the penguin wrong.jpg	1	2	2759	71	2	2759.000000	118.000000	2641.000000	1356.836375	2680.000000	1073.676255	200.346591	0.909959	4.000000	16.000000
1	2	10	74	The husband was fed by his wife.wav	76	passive	~The husband was fed by his wife right.jpg	~The husband was fed by his wife wrong.jpg	~The husband was fed by his wife right.jpg	0	1	1883	243	2	1883.000000	274.000000	1609.000000	6495.301899	1805.000000	910.211134	230.341667	0.757832	1.000000	7.000000
1	2	10	75	The daughter kisses the king.wav	77	declarative	~The king was kissed by his daughter right.jpg	~The king was kissed by his daughter wrong.jpg	~The king was kissed by his daughter right.jpg	0	1	1555	165	2	1555.000000	165.000000	1390.000000	4938.864683	1477.000000	931.200973	228.808081	0.730184	2.000000	12.000000
1	2	10	76	The actor brought pears to the actress.wav	78	dative	~The actor brought pears to the actress wrong.jpg	~The actor brought pears to the actress right.jpg	~The actor brought pears to the actress right.jpg	0	2	1775	103	1	1760.000000	103.000000	1657.000000	4855.019100	1681.000000	913.257308	175.723214	0.936184	4.000000	8.000000
1	2	10	77	The nephew showed the website to his aunt.wav	79	dative	~The nephew showed the website to his aunt right.jpg	~The nephew showed the website to his aunt wrong.jpg	~The nephew showed the website to his aunt wrong.jpg	1	2	2821	87	2	2821.000000	102.000000	2719.000000	5464.972915	2743.000000	1014.305094	204.788889	0.948637	3.000000	29.000000
1	2	10	78	The guy drinking coffee is reading books.wav	80	RC	~The guy drinking coffee is reading books wrong.jpg	~The guy drinking coffee is reading books right.jpg	~The guy drinking coffee is reading books right.jpg	0	2	2789	102	1	2789.000000	165.000000	2624.000000	1768.999265	2711.000000	1045.630433	145.522472	0.964530	2.000000	16.000000
1	2	10	79	The man eating snacks is watching tv.wav	81	RC	~The man eating snacks is watching tv wrong.jpg	~The man eating snacks is watching tv right.jpg	~The man eating snacks is watching tv right.jpg	0	2	1962	56	1	1962.000000	102.000000	1860.000000	3804.761512	1884.000000	997.934181	189.628000	0.878858	3.000000	19.000000
1	2	10	80	The skier was crushed by the snowboard.wav	82	passive	~The skier was crushed by the snowboard right.jpg	~The skier was crushed by the snowboard wrong.jpg	~The skier was crushed by the snowboard right.jpg	0	1	2446	118	2	2446.000000	196.000000	2250.000000	2689.221790	2368.000000	1029.929391	182.916667	0.877927	2.000000	19.000000
1	2	10	81	The groom gave a gift to the bride.wav	83	dative	~The groom gave a gift to the bride right.jpg	~The groom gave a gift to the bride wrong.jpg	~The groom gave a gift to the bride right.jpg	0	1	1602	71	2	1602.000000	71.000000	1531.000000	4060.746462	1477.000000	908.801632	190.147059	0.737959	3.000000	11.000000
1	2	10	82	The monster is behind the sofa.wav	84	preposition	~The monster is behind the sofa right.jpg	~The monster is behind the sofa wrong.jpg	~The monster is behind the sofa right.jpg	0	1	1509	275	2	1509.000000	275.000000	1234.000000	5347.785613	1416.000000	920.482710	208.927083	0.797983	1.000000	5.000000
1	2	10	83	The robber shoots the policeman.wav	85	declarative	~The policeman is shot by the robber wrong.jpg	~The policeman is shot by the robber right.jpg	~The policeman is shot by the robber right.jpg	0	2	1634	150	1	1634.000000	259.000000	1375.000000	7397.320510	1556.000000	929.934556	241.394231	0.745047	2.000000	12.000000
1	3	11	1	The children like sliding down the slide.wav	2	practice	~The children like sliding down the slide right.jpg	~The children like sliding down the slide wrong.jpg	~The children like sliding down the slide right.jpg	0	1	1939	190	2	1939.000000	346.000000	1593.000000	3757.259361	1783.000000	917.017550	150.833333	0.767542	3.000000	9.000000
1	3	11	2	The classmates are holding hands.wav	3	practice	~The classmates are holding hands wrong.jpg	~The classmates are holding hands right.jpg	~The classmates are holding hands right.jpg	0	2	1618	322	1	1618.000000	540.000000	1078.000000	4282.373511	1431.000000	1006.190757	198.737293	0.595164	2.000000	13.000000
1	3	11	3	The housewife is washing the car.wav	4	practice	~The housewife is washing the car wrong.jpg	~The housewife is washing the car right.jpg	~The housewife is washing the car right.jpg	0	2	2010	26	1	2010.000000	229.000000	1781.000000	10141.890892	1572.000000	2122.944991	284.031371	0.864029	2.000000	11.000000
1	3	11	4	The person shivering caught a cold.wav	5	practice	~The person shivering caught a cold right.jpg	~The person shivering caught a cold wrong.jpg	~The person shivering caught a cold right.jpg	0	1	1494	72	2	1494.000000	88.000000	1406.000000	6095.800965	1369.000000	1150.029840	230.273684	1.009857	5.000000	11.000000
1	3	11	5	The policeman caught a theif.wav	6	practice	~The policeman caught a theif right.jpg	~The policeman caught a theif wrong.jpg	~The policeman caught a theif right.jpg	0	1	1228	56	2	1228.000000	134.000000	1094.000000	4029.670624	1087.000000	963.775870	161.882451	0.864048	1.000000	9.000000
1	3	11	6	The secretary answered the call.wav	7	practice	~The secretary answered the call right.jpg	~The secretary answered the call wrong.jpg	~The secretary answered the call right.jpg	0	1	1618	87	2	1618.000000	103.000000	1515.000000	5070.908205	1446.000000	1088.684428	252.456311	0.844870	3.000000	7.000000
1	3	11	7	The worker has a white mustache.wav	8	practice	~The worker has a white mustache wrong.jpg	~The worker has a white mustache right.jpg	~The worker has a white mustache right.jpg	0	2	2774	86	1	2774.000000	117.000000	2657.000000	2584.906223	1883.000000	1431.210602	123.035311	0.917783	3.000000	17.000000
1	3	11	8	The postman is holding a letter.wav	9	practice	~The postman is holding a letter right.jpg	~The postman is holding a letter wrong.jpg	~The postman is holding a letter right.jpg	0	1	1526	73	2	1526.000000	88.000000	1438.000000	2815.895376	1369.000000	1121.567708	67.351912	0.656984	3.000000	7.000000
1	3	11	9	The boy is pushed by his sister.wav	11	passive	~The boy is pushed by his sister right.jpg	~The boy is pushed by his sister wrong.jpg	~The boy is pushed by his sister right.jpg	0	1	1930	165	2	1930.000000	180.000000	1750.000000	3086.606178	1633.000000	1092.848009	225.581301	0.923990	1.000000	13.000000
1	3	11	10	The chair is below the window.wav	12	preposition	~The chair is below the window wrong.jpg	~The chair is below the window right.jpg	~The chair is below the window right.jpg	0	2	1758	102	1	1758.000000	118.000000	1640.000000	5673.637609	1664.000000	996.666240	259.232143	0.747967	4.000000	4.000000
1	3	11	11	The hamster is outside the cage.wav	13	preposition	~The hamster is outside the cage wrong.jpg	~The hamster is outside the cage right.jpg	~The hamster is outside the cage right.jpg	0	2	1524	71	1	1524.000000	71.000000	1453.000000	5653.197364	1352.000000	1056.188877	202.227878	0.802611	2.000000	11.000000
1	3	11	12	The chicken was scared by the crow.wav	14	passive	~The chicken was scared by the crow wrong.jpg	~The chicken was scared by the crow right.jpg	~The chicken was scared by the crow right.jpg	0	2	2117	55	1	2117.000000	55.000000	2062.000000	2693.196530	1852.000000	1061.075758	197.833333	0.861094	2.000000	10.000000
1	3	11	13	The niece sent a letter to her uncle.wav	15	dative	~The niece sent a letter to her uncle wrong.jpg	~The niece sent a letter to her uncle right.jpg	~The niece sent a letter to her uncle right.jpg	0	2	1665	87	1	1665.000000	118.000000	1547.000000	6278.695174	1555.000000	1023.156876	225.198113	0.813411	2.000000	7.000000
1	3	11	14	The gentleman bought flowers for his love.wav	16	dative	~The gentleman bought flowers for his love right.jpg	~The gentleman bought flowers for his love wrong.jpg	~The gentleman bought flowers for his love right.jpg	0	1	1868	102	2	1868.000000	118.000000	1750.000000	4482.604032	1743.000000	987.185605	225.247899	0.882241	1.000000	9.000000
1	3	11	15	The aunt is assisted by her niece.wav	17	passive	~The aunt is assisted by her niece wrong.jpg	~The aunt is assisted by her niece right.jpg	~The aunt is assisted by her niece wrong.jpg	1	1	1821	40	1	1821.000000	133.000000	1688.000000	2719.202282	1743.000000	858.674719	104.155172	0.702092	1.000000	9.000000
1	3	11	16	The daughter made a sweater for her dad.wav	18	dative	~The daughter made a sweater for her dad right.jpg	~The daughter made a sweater for her dad wrong.jpg	~The daughter made a sweater for her dad wrong.jpg	1	2	1697	56	2	1697.000000	72.000000	1625.000000	4232.617251	1541.000000	1135.874876	228.972222	0.772367	2.000000	5.000000
1	3	11	17	The man cutting a board makes tables.wav	19	RC	~The man cutting a board makes tables right.jpg	~The man cutting a board makes tables wrong.jpg	~The man cutting a board makes tables right.jpg	0	1	2633	133	2	2633.000000	149.000000	2484.000000	1774.755286	2555.000000	1002.497883	151.011905	0.819808	1.000000	15.000000
1	3	11	18	The monkey is under the box.wav	20	preposition	~The monkey is under the box wrong.jpg	~The monkey is under the box right.jpg	~The monkey is under the box right.jpg	0	2	1649	71	1	1649.000000	87.000000	1562.000000	5393.932176	1462.000000	1167.851179	245.880952	0.858586	4.000000	11.000000
1	3	11	19	The nurse hugs the surgeon.wav	21	declarative	~The surgeon is hugged by the nurse wrong.jpg	~The surgeon is hugged by the nurse right.jpg	~The surgeon is hugged by the nurse right.jpg	0	2	1618	118	1	1603.000000	118.000000	1485.000000	3179.069458	1446.000000	1028.385972	193.833333	0.797690	2.000000	6.000000
1	3	11	20	The dog was bitten by the snake.wav	22	passive	~The dog was bitten by the snake right.jpg	~The dog was bitten by the snake wrong.jpg	~The dog was bitten by the snake right.jpg	0	1	2227	118	2	2227.000000	149.000000	2078.000000	3363.306960	2071.000000	1005.249132	215.316901	0.865204	1.000000	9.000000
1	3	11	21	The ball is in front of the box.wav	23	preposition	~The ball is in front of the box right.jpg	~The ball is in front of the box wrong.jpg	~The ball is in front of the box right.jpg	0	1	1743	118	2	1743.000000	133.000000	1610.000000	3623.227490	1664.000000	883.216723	182.783784	0.820507	1.000000	3.000000
1	3	11	22	The guy fixing the fence is using tools.wav	24	RC	~The guy fixing the fence is using tools right.jpg	~The guy fixing the fence is using tools wrong.jpg	~The guy fixing the fence is using tools right.jpg	0	1	2259	71	2	2259.000000	87.000000	2172.000000	2885.977281	1993.000000	959.493569	134.048611	0.779669	0.000000	12.000000
1	3	11	23	The kid tickles the mom.wav	25	declarative	~The mom was tickled by her kid right.jpg	~The mom was tickled by her kid wrong.jpg	~The mom was tickled by her kid right.jpg	0	1	2571	71	2	2571.000000	87.000000	2484.000000	4303.406532	2493.000000	1426.656884	213.585366	0.918411	2.000000	18.000000
1	3	11	24	The groom gave a gift to the bride.wav	26	dative	~The groom gave a gift to the bride right.jpg	~The groom gave a gift to the bride wrong.jpg	~The groom gave a gift to the bride right.jpg	0	1	2227	56	2	2227.000000	87.000000	2140.000000	1792.380218	1837.000000	943.331150	148.671861	0.734560	4.000000	12.000000
1	3	11	25	The cafe is at the corner.wav	27	preposition	~The cafe is at the corner wrong.jpg	~The cafe is at the corner right.jpg	~The cafe is at the corner right.jpg	0	2	1946	71	1	1946.000000	118.000000	1828.000000	5235.095943	1790.000000	1169.528278	283.870968	0.845127	2.000000	12.000000
1	3	11	26	The desk is against the window.wav	28	preposition	~The desk is against the window wrong.jpg	~The desk is against the window right.jpg	~The desk is against the window right.jpg	0	2	2072	41	1	2072.000000	56.000000	2016.000000	5498.099402	1900.000000	1190.702896	213.159091	0.842005	2.000000	10.000000
1	3	11	27	The maid sweeping the floor has an apron.wav	29	RC	~The maid sweeping the floor has an apron wrong.jpg	~The maid sweeping the floor has an apron right.jpg	~The maid sweeping the floor has an apron right.jpg	0	2	1697	40	1	1697.000000	25.000000	1672.000000	3323.495991	1540.000000	922.818993	167.287037	0.777437	2.000000	14.000000
1	3	11	28	The nurse drying her hair is singing.wav	30	RC	~The nurse drying her hair is singing right.jpg	~The nurse drying her hair is singing wrong.jpg	~The nurse drying her hair is singing right.jpg	0	1	2165	118	2	2165.000000	118.000000	2047.000000	2758.638207	2009.000000	1006.352933	193.311594	0.864023	3.000000	5.000000
1	3	11	29	The athlete jumping rope is sweating.wav	31	RC	~The athlete jumping rope is sweating right.jpg	~The athlete jumping rope is sweating wrong.jpg	~The athlete jumping rope is sweating right.jpg	0	1	1727	56	2	1727.000000	71.000000	1656.000000	4063.171373	1618.000000	1056.704372	245.209091	0.885152	1.000000	9.000000
1	3	11	30	The student drawing maps has glasses.wav	32	RC	~The student drawing maps has glasses wrong.jpg	~The student drawing maps has glasses right.jpg	~The student drawing maps has glasses right.jpg	0	2	1852	118	1	1852.000000	134.000000	1718.000000	4102.305342	1681.000000	1044.484404	202.610169	0.871790	3.000000	7.000000
1	3	11	31	The princess slaps the prince.wav	33	declarative	~The prince is slapped by the princess wrong.jpg	~The prince is slapped by the princess right.jpg	~The prince is slapped by the princess right.jpg	0	2	2055	86	1	2055.000000	86.000000	1969.000000	4544.190918	1946.000000	1045.579858	186.977099	0.829628	0.000000	2.000000
1	3	11	32	The teacher writing words likes spelling.wav	34	RC	~The teacher writing words likes spelling wrong.jpg	~The teacher writing words likes spelling right.jpg	~The teacher writing words likes spelling wrong.jpg	1	1	3103	41	1	3103.000000	41.000000	3062.000000	2333.266499	2775.000000	1092.739322	150.119418	0.938453	1.000000	7.000000
1	3	11	33	The baby touches the hamster.wav	35	declarative	~The hamster is touched by the baby right.jpg	~The hamster is touched by the baby wrong.jpg	~The hamster is touched by the baby wrong.jpg	1	2	3165	40	2	3165.000000	40.000000	3125.000000	2693.169261	3087.000000	1020.756539	138.742032	0.771821	2.000000	14.000000
1	3	11	34	The woman poured juice for the guest.wav	36	dative	~The woman poured juice for the guest right.jpg	~The woman poured juice for the guest wrong.jpg	~The woman poured juice for the guest right.jpg	0	1	2962	56	2	2962.000000	56.000000	2906.000000	2555.548771	2837.000000	955.573581	157.748677	0.798567	1.000000	3.000000
1	3	11	35	The coach threw the bottle to the boy.wav	37	dative	~The coach threw the bottle to the boy wrong.jpg	~The coach threw the bottle to the boy right.jpg	~The coach threw the bottle to the boy wrong.jpg	1	1	3149	118	1	3149.000000	118.000000	3031.000000	2683.189222	212.000000	971.225771	135.868159	0.789660	0.000000	20.000000
1	3	11	36	The couple reading the map is lost.wav	38	RC	~The couple reading the map is lost wrong.jpg	~The couple reading the map is lost right.jpg	~The couple reading the map is lost right.jpg	0	2	2212	103	1	2212.000000	118.000000	2094.000000	2470.148151	2071.000000	952.439967	169.478723	0.719516	2.000000	6.000000
1	3	11	37	The child delivered mail to the woman.wav	39	dative	~The child delivered mail to the woman right.jpg	~The child delivered mail to the woman wrong.jpg	~The child delivered mail to the woman right.jpg	0	1	2789	39	2	2789.000000	55.000000	2734.000000	2013.586321	180.000000	1008.855084	190.556180	0.800706	3.000000	10.000000
1	3	11	38	The actor brought pears to the actress.wav	40	dative	~The actor brought pears to the actress wrong.jpg	~The actor brought pears to the actress right.jpg	~The actor brought pears to the actress right.jpg	0	2	3133	102	1	3133.000000	133.000000	3000.000000	1430.246596	2680.000000	995.583019	172.142186	0.798076	5.000000	13.000000
1	3	11	39	The daughter kisses the king.wav	41	declarative	~The king was kissed by his daughter right.jpg	~The king was kissed by his daughter wrong.jpg	~The king was kissed by his daughter right.jpg	0	1	2071	56	2	2071.000000	71.000000	2000.000000	2557.415777	1915.000000	1051.645859	234.848485	0.932021	1.000000	9.000000
1	3	11	40	The boxer is punched by the kangeroo.wav	42	passive	~The boxer is punched by the kangeroo wrong.jpg	~The boxer is punched by the kangeroo right.jpg	~The boxer is punched by the kangeroo wrong.jpg	1	1	2649	149	1	2649.000000	149.000000	2500.000000	3969.196752	2524.000000	955.157854	202.914201	0.820208	1.000000	7.000000
1	3	11	41	The cat attacks the fireman.wav	43	declarative	~The fireman is attacked by the cat right.jpg	~The fireman is attacked by the cat wrong.jpg	~The fireman is attacked by the cat right.jpg	0	1	2197	88	2	2197.000000	103.000000	2094.000000	3368.361896	2056.000000	917.989406	209.214286	0.733119	1.000000	5.000000
1	3	11	42	The rabbit is in the red box.wav	44	preposition	~The rabbit is in the red box wrong.jpg	~The rabbit is in the red box right.jpg	~The rabbit is in the red box right.jpg	0	2	2041	134	1	2041.000000	134.000000	1907.000000	2333.333333	1400.000000	1195.162679	147.925760	0.784146	2.000000	15.000000
1	3	11	43	The tiger lifts the bear.wav	45	declarative	~The bear was lifted by the tiger right.jpg	~The bear was lifted by the tiger wrong.jpg	~The bear was lifted by the tiger right.jpg	0	1	2009	40	2	2009.000000	103.000000	1906.000000	3175.205923	1774.000000	989.285352	225.189922	0.836088	1.000000	5.000000
1	3	11	44	The fish eats the fisherman.wav	46	declarative	~The fisherman is eaten by the fish wrong.jpg	~The fisherman is eaten by the fish right.jpg	~The fisherman is eaten by the fish right.jpg	0	2	1806	134	1	1806.000000	134.000000	1672.000000	1984.543364	228.000000	1149.986616	222.952174	0.864391	2.000000	4.000000
1	3	11	45	The monster is behind the sofa.wav	47	preposition	~The monster is behind the sofa right.jpg	~The monster is behind the sofa wrong.jpg	~The monster is behind the sofa right.jpg	0	1	2087	87	2	2087.000000	118.000000	1969.000000	3073.258696	1978.000000	1088.610731	242.383459	0.854626	3.000000	5.000000
1	3	11	46	The bus hits the motorcycle.wav	48	declarative	~The motercycle is hit by the bus wrong.jpg	~The motercycle is hit by the bus right.jpg	~The motercycle is hit by the bus right.jpg	0	2	2197	134	1	2197.000000	134.000000	2063.000000	2184.108228	243.000000	1075.900174	201.650000	0.903320	2.000000	2.000000
1	3	11	47	The boss left two keys for the janitor.wav	49	dative	~The boss left two keys for the janitor right.jpg	~The boss left two keys for the janitor wrong.jpg	~The boss left two keys for the janitor right.jpg	0	1	4556	87	2	4556.000000	87.000000	4469.000000	3248.479884	4196.000000	2070.492451	252.853952	0.943477	2.000000	10.000000
1	3	11	48	The waiter carrying trays likes food.wav	50	RC	~The waiter carrying trays likes food right.jpg	~The waiter carrying trays likes food wrong.jpg	~The waiter carrying trays likes food right.jpg	0	1	2838	57	2	2838.000000	72.000000	2766.000000	1941.319009	2588.000000	1052.028887	188.461326	0.791162	1.000000	7.000000
1	3	11	49	The lady stiring juice feels thirsty.wav	51	RC	~The lady stiring juice feels thirsty right.jpg	~The lady stiring juice feels thirsty wrong.jpg	~The lady stiring juice feels thirsty right.jpg	0	1	2243	149	2	2243.000000	165.000000	2078.000000	1743.110495	415.000000	1132.177662	55.775830	0.722119	2.000000	12.000000
1	3	11	50	The cloud hides the sun.wav	52	declarative	~The sun is hidden by the cloud right.jpg	~The sun is hidden by the cloud wrong.jpg	~The sun is hidden by the cloud right.jpg	0	1	2384	103	2	2384.000000	118.000000	2266.000000	2084.077877	228.000000	1002.631854	199.578947	0.786773	1.000000	9.000000
1	3	11	51	The student watering flowers loves plants.wav	53	RC	~The student watering flowers loves plants wrong.jpg	~The student watering flowers loves plants right.jpg	~The student watering flowers loves plants right.jpg	0	2	3430	102	1	3430.000000	118.000000	3312.000000	4039.115246	3087.000000	1222.370161	278.103557	0.800600	3.000000	2.000000
1	3	11	52	The seagull chases the tourist.wav	54	declarative	~The tourist is chased by the seagull wrong.jpg	~The tourist is chased by the seagull right.jpg	~The tourist is chased by the seagull right.jpg	0	2	2010	103	1	2010.000000	119.000000	1891.000000	3541.345923	228.000000	1149.559436	246.226562	0.957827	2.000000	12.000000
1	3	11	53	The puppy was licked by the kitten.wav	55	passive	~The puppy was licked by the kitten right.jpg	~The puppy was licked by the kitten wrong.jpg	~The puppy was licked by the kitten right.jpg	0	1	2869	56	2	2869.000000	87.000000	2782.000000	3709.196288	2618.000000	957.665509	220.322404	0.777871	1.000000	17.000000
1	3	11	54	The maid folding clothes is wearing braclets.wav	56	RC	~The maid folding clothes is wearing braclets right.jpg	~The maid folding clothes is wearing braclets wrong.jpg	~The maid folding clothes is wearing braclets right.jpg	0	1	2354	57	2	2354.000000	119.000000	2235.000000	2568.406406	291.000000	989.160839	165.246667	0.859407	4.000000	10.000000
1	3	11	55	The bird watches the alligator.wav	57	declarative	~The alligator is watched by the bird right.jpg	~The alligator is watched by the bird wrong.jpg	~The alligator is watched by the bird right.jpg	0	1	3025	134	2	3025.000000	150.000000	2875.000000	2748.901820	2853.000000	1242.420353	179.603627	0.804399	2.000000	14.000000
1	3	11	56	The driver explained the route to the girl.wav	58	dative	~The driver explained the route to the girl wrong.jpg	~The driver explained the route to the girl right.jpg	~The driver explained the route to the girl right.jpg	0	2	3571	102	1	3571.000000	118.000000	3453.000000	3058.862813	3430.000000	1194.973358	300.324561	0.843381	1.000000	19.000000
1	3	11	57	The basket is on the blanket.wav	59	preposition	~The basket is on the blanket right.jpg	~The basket is on the blanket wrong.jpg	~The basket is on the blanket right.jpg	0	1	1852	134	2	1852.000000	134.000000	1718.000000	2063.736876	1727.000000	1000.319421	144.838983	0.804414	3.000000	7.000000
1	3	11	58	The girl using a phone needs a cab.wav	60	RC	~The girl using a phone needs a cab wrong.jpg	~The girl using a phone needs a cab right.jpg	~The girl using a phone needs a cab right.jpg	0	2	2883	86	1	2883.000000	102.000000	2781.000000	3196.295058	2649.000000	1178.624026	247.572642	0.644395	1.000000	2.000000
1	3	11	59	The guy drinking coffee is reading books.wav	61	RC	~The guy drinking coffee is reading books wrong.jpg	~The guy drinking coffee is reading books right.jpg	~The guy drinking coffee is reading books right.jpg	0	2	2461	40	1	2461.000000	71.000000	2390.000000	2453.598766	2305.000000	1119.389023	217.942675	0.891623	2.000000	12.000000
1	3	11	60	The clock is by the entrance door.wav	62	preposition	~The clock is by the entrance door right.jpg	~The clock is by the entrance door wrong.jpg	~The clock is by the entrance door right.jpg	0	1	2447	56	2	2447.000000	87.000000	2360.000000	4231.251521	2259.000000	1026.649750	250.846154	0.913297	1.000000	3.000000
1	3	11	61	The duck was led by the penguin.wav	63	passive	~The duck was led by the penguin right.jpg	~The duck was led by the penguin wrong.jpg	~The duck was led by the penguin right.jpg	0	1	3071	71	2	3071.000000	117.000000	2954.000000	2070.545252	2602.000000	1313.246788	177.326531	0.677809	2.000000	13.000000
1	3	11	62	The panda is colored by the monkey.wav	64	passive	~The panda is colored by the monkey wrong.jpg	~The panda is colored by the monkey right.jpg	~The panda is colored by the monkey right.jpg	0	2	2696	71	1	2696.000000	102.000000	2594.000000	2341.923883	2305.000000	1111.930688	202.302326	0.756699	1.000000	19.000000
1	3	11	63	The zebra kicks the horse.wav	65	declarative	~The horse is kicked by the zebra right.jpg	~The horse is kicked by the zebra wrong.jpg	~The horse is kicked by the zebra wrong.jpg	1	2	2430	87	2	2430.000000	118.000000	2312.000000	2047.400740	1821.000000	1214.240893	163.339003	0.705731	2.000000	13.000000
1	3	11	64	The chef was suprised by the mailman.wav	66	passive	~The chef was suprised by the mailman right.jpg	~The chef was suprised by the mailman wrong.jpg	~The chef was suprised by the mailman right.jpg	0	1	4557	57	2	4557.000000	57.000000	4500.000000	2234.187051	4385.000000	914.998542	111.773372	0.683676	3.000000	15.000000
1	3	11	65	The cabinet is near the chalkboard.wav	67	preposition	~The cabinet is near the chalkboard right.jpg	~The cabinet is near the chalkboard wrong.jpg	~The cabinet is near the chalkboard wrong.jpg	1	2	3431	55	2	3431.000000	102.000000	3329.000000	4288.309597	3337.000000	1111.501237	281.778539	0.828727	2.000000	8.000000
1	3	11	66	The turtle was carried by the sheep.wav	68	passive	~The turtle was carried by the sheep right.jpg	~The turtle was carried by the sheep wrong.jpg	~The turtle was carried by the sheep right.jpg	0	1	2508	40	2	2508.000000	40.000000	2468.000000	3355.230591	2368.000000	1322.692326	260.312500	0.949334	3.000000	5.000000
1	3	11	67	The bird is above the big tree.wav	69	preposition	~The bird is above the big tree right.jpg	~The bird is above the big tree wrong.jpg	~The bird is above the big tree right.jpg	0	1	2025	56	2	2025.000000	72.000000	1953.000000	3138.830307	1837.000000	1008.746255	197.081395	0.815021	2.000000	8.000000
1	3	11	68	The father lent money to his daughter.wav	70	dative	~The father lent money to his daughter right.jpg	~The father lent money to his daughter wrong.jpg	~The father lent money to his daughter right.jpg	0	1	2805	40	2	2805.000000	55.000000	2750.000000	2398.021493	2633.000000	942.315206	169.452514	0.626195	0.000000	10.000000
1	3	11	69	The car is inside the garage.wav	71	preposition	~The car is inside the garage right.jpg	~The car is inside the garage wrong.jpg	~The car is inside the garage right.jpg	0	1	1868	103	2	1868.000000	118.000000	1750.000000	3097.185687	1712.000000	924.920941	219.819328	0.736706	1.000000	7.000000
1	3	11	70	The robber shoots the policeman.wav	72	declarative	~The policeman is shot by the robber wrong.jpg	~The policeman is shot by the robber right.jpg	~The policeman is shot by the robber right.jpg	0	2	3557	57	1	3557.000000	88.000000	3469.000000	2770.562585	3276.000000	1076.845319	228.136564	0.712434	2.000000	13.000000
1	3	11	71	The skier was crushed by the snowboard.wav	73	passive	~The skier was crushed by the snowboard right.jpg	~The skier was crushed by the snowboard wrong.jpg	~The skier was crushed by the snowboard right.jpg	0	1	3227	446	2	3227.000000	461.000000	2766.000000	2221.625882	3102.000000	888.211022	130.150485	0.767916	1.000000	3.000000
1	3	11	72	The arrow is between the squares.wav	74	preposition	~The arrow is between the squares right.jpg	~The arrow is between the squares wrong.jpg	~The arrow is between the squares right.jpg	0	1	2149	71	2	2149.000000	71.000000	2078.000000	2179.444150	1930.000000	921.101053	174.638686	0.736725	1.000000	1.000000
1	3	11	73	The clerk handed change to the shopper.wav	75	dative	~The clerk handed change to the shopper right.jpg	~The clerk handed change to the shopper wrong.jpg	~The clerk handed change to the shopper right.jpg	0	1	3947	134	2	3947.000000	134.000000	3813.000000	2244.202444	3743.000000	938.441124	112.155442	0.688041	0.000000	17.000000
1	3	11	74	The grandpaw told stories to the boy.wav	76	dative	~The grandpaw told stories to the boy right.jpg	~The grandpaw told stories to the boy wrong.jpg	~The grandpaw told stories to the boy right.jpg	0	1	3103	40	2	3103.000000	103.000000	3000.000000	1576.923077	212.000000	937.800775	157.404040	0.834072	0.000000	10.000000
1	3	11	75	The grandmother finds the grandson.wav	77	declarative	~The grandson is found by his grandmother wrong.jpg	~The grandson is found by his grandmother right.jpg	~The grandson is found by his grandmother right.jpg	0	2	3415	71	1	3415.000000	118.000000	3297.000000	3130.369474	3040.000000	1088.979751	226.100917	0.682004	3.000000	15.000000
1	3	11	76	The pig was followed by the hen.wav	78	passive	~The pig was followed by the hen wrong.jpg	~The pig was followed by the hen right.jpg	~The pig was followed by the hen right.jpg	0	2	4447	87	1	4447.000000	103.000000	4344.000000	2757.524249	4197.000000	1111.296818	228.080986	0.767138	2.000000	5.000000
1	3	11	77	The lamp is next to the dresser.wav	79	preposition	~The lamp is next to the dresser wrong.jpg	~The lamp is next to the dresser right.jpg	~The lamp is next to the dresser right.jpg	0	2	1634	196	1	1634.000000	196.000000	1438.000000	3966.320649	1399.000000	999.752902	145.931572	0.630882	0.000000	9.000000
1	3	11	78	The farmer returned cups to his neighbor.wav	80	dative	~The farmer returned cups to his neighbor wrong.jpg	~The farmer returned cups to his neighbor right.jpg	~The farmer returned cups to his neighbor right.jpg	0	2	3196	71	1	3196.000000	71.000000	3125.000000	2298.200767	2946.000000	1000.794155	133.546218	0.636440	2.000000	9.000000
1	3	11	79	The hero is killed by the robber.wav	81	passive	~The hero is killed by the robber wrong.jpg	~The hero is killed by the robber right.jpg	~The hero is killed by the robber right.jpg	0	2	2368	56	1	2368.000000	71.000000	2297.000000	2611.913316	2009.000000	1080.853424	163.460044	0.618029	0.000000	11.000000
1	3	11	80	The nephew showed the website to his aunt.wav	82	dative	~The nephew showed the website to his aunt right.jpg	~The nephew showed the website to his aunt wrong.jpg	~The nephew showed the website to his aunt right.jpg	0	1	4290	180	2	4290.000000	196.000000	4094.000000	4866.504326	4102.000000	1169.642875	366.598540	1.002713	1.000000	11.000000
1	3	11	81	The elephant was washed by the worker.wav	83	passive	~The elephant was washed by the worker wrong.jpg	~The elephant was washed by the worker right.jpg	~The elephant was washed by the worker right.jpg	0	2	2289	149	1	2274.000000	149.000000	2125.000000	2665.738948	1992.000000	1086.369219	199.035872	0.682505	2.000000	9.000000
1	3	11	82	The husband was fed by his wife.wav	84	passive	~The husband was fed by his wife right.jpg	~The husband was fed by his wife wrong.jpg	~The husband was fed by his wife right.jpg	0	1	2086	40	2	2086.000000	71.000000	2015.000000	2440.244431	196.000000	1138.373187	250.887218	0.998889	1.000000	9.000000
1	3	11	83	The man eating snacks is watching tv.wav	85	RC	~The man eating snacks is watching tv wrong.jpg	~The man eating snacks is watching tv right.jpg	~The man eating snacks is watching tv right.jpg	0	2	3228	40	1	3228.000000	56.000000	3172.000000	3890.853061	3024.000000	1017.067429	217.266990	0.840735	2.000000	10.000000
1	4	12	1	The children like sliding down the slide.wav	2	practice	~The children like sliding down the slide right.jpg	~The children like sliding down the slide wrong.jpg	~The children like sliding down the slide right.jpg	0	1	2813	2188	2	2813.000000	2204.000000	609.000000	4742.336211	2344.000000	962.542169	167.685362	0.691950	0.000000	6.000000
1	4	12	2	The classmates are holding hands.wav	3	practice	~The classmates are holding hands wrong.jpg	~The classmates are holding hands right.jpg	~The classmates are holding hands right.jpg	0	2	1524	102	1	1508.000000	212.000000	1296.000000	6618.398621	1305.000000	1336.521377	307.186653	0.775925	1.000000	12.000000
1	4	12	3	The housewife is washing the car.wav	4	practice	~The housewife is washing the car wrong.jpg	~The housewife is washing the car right.jpg	~The housewife is washing the car wrong.jpg	1	1	1134	243	1	1134.000000	243.000000	891.000000	2237.316689	727.000000	871.157945	107.083333	0.745955	0.000000	2.000000
1	4	12	4	The person shivering caught a cold.wav	5	practice	~The person shivering caught a cold right.jpg	~The person shivering caught a cold wrong.jpg	~The person shivering caught a cold right.jpg	0	1	2040	134	2	2040.000000	150.000000	1890.000000	2978.309614	1915.000000	927.021800	165.976923	0.745112	1.000000	19.000000
1	4	12	5	The policeman caught a theif.wav	6	practice	~The policeman caught a theif right.jpg	~The policeman caught a theif wrong.jpg	~The policeman caught a theif right.jpg	0	1	1696	118	2	1696.000000	243.000000	1453.000000	3477.906317	1525.000000	946.374749	136.833333	0.720014	0.000000	20.000000
1	4	12	6	The secretary answered the call.wav	7	practice	~The secretary answered the call right.jpg	~The secretary answered the call wrong.jpg	~The secretary answered the call right.jpg	0	1	1571	181	2	1571.000000	212.000000	1359.000000	5623.576879	1493.000000	833.948215	181.710000	0.761304	2.000000	6.000000
1	4	12	7	The worker has a white mustache.wav	8	practice	~The worker has a white mustache wrong.jpg	~The worker has a white mustache right.jpg	~The worker has a white mustache right.jpg	0	2	1758	164	1	1758.000000	180.000000	1578.000000	6006.621318	1680.000000	788.228024	205.705357	0.813605	1.000000	7.000000
1	4	12	8	The postman is holding a letter.wav	9	practice	~The postman is holding a letter right.jpg	~The postman is holding a letter wrong.jpg	~The postman is holding a letter right.jpg	0	1	1680	181	2	1680.000000	212.000000	1468.000000	4875.504971	1602.000000	1065.547940	245.967554	0.715272	0.000000	19.000000
1	4	12	9	The man cutting a board makes tables.wav	11	RC	~The man cutting a board makes tables right.jpg	~The man cutting a board makes tables wrong.jpg	~The man cutting a board makes tables right.jpg	0	1	1900	150	2	1900.000000	150.000000	1750.000000	4853.605865	1822.000000	1187.454322	214.847107	0.825202	4.000000	8.000000
1	4	12	10	The chicken was scared by the crow.wav	12	passive	~The chicken was scared by the crow wrong.jpg	~The chicken was scared by the crow right.jpg	~The chicken was scared by the crow right.jpg	0	2	2135	119	1	2135.000000	166.000000	1969.000000	2706.092099	1744.000000	1076.995251	220.566176	0.968937	1.000000	23.000000
1	4	12	11	The niece sent a letter to her uncle.wav	13	dative	~The niece sent a letter to her uncle wrong.jpg	~The niece sent a letter to her uncle right.jpg	~The niece sent a letter to her uncle right.jpg	0	2	1821	87	1	1821.000000	87.000000	1734.000000	3177.343759	1493.000000	986.764496	174.793103	0.809511	2.000000	18.000000
1	4	12	12	The ball is in front of the box.wav	14	preposition	~The ball is in front of the box right.jpg	~The ball is in front of the box wrong.jpg	~The ball is in front of the box right.jpg	0	1	1430	40	2	1430.000000	40.000000	1390.000000	4527.674743	1352.000000	1063.275120	231.868132	0.822242	4.000000	6.000000
1	4	12	13	The chair is below the window.wav	15	preposition	~The chair is below the window wrong.jpg	~The chair is below the window right.jpg	~The chair is below the window right.jpg	0	2	1618	40	1	1618.000000	56.000000	1562.000000	6006.219461	1446.000000	1358.850463	345.825243	1.199099	1.000000	13.000000
1	4	12	14	The student watering flowers loves plants.wav	16	RC	~The student watering flowers loves plants wrong.jpg	~The student watering flowers loves plants right.jpg	~The student watering flowers loves plants right.jpg	0	2	2337	306	1	2337.000000	384.000000	1953.000000	1597.142021	1884.000000	832.371366	53.744785	0.449834	0.000000	37.000000
1	4	12	15	The desk is against the window.wav	17	preposition	~The desk is against the window wrong.jpg	~The desk is against the window right.jpg	~The desk is against the window right.jpg	0	2	1977	56	1	1977.000000	118.000000	1859.000000	2118.521606	1446.000000	863.513537	46.068190	0.552031	3.000000	13.000000
1	4	12	16	The kid tickles the mom.wav	18	declarative	~The mom was tickled by her kid right.jpg	~The mom was tickled by her kid wrong.jpg	~The mom was tickled by her kid right.jpg	0	1	2338	87	2	2338.000000	181.000000	2157.000000	5302.460090	2244.000000	1777.222345	134.057274	0.634978	2.000000	22.000000
1	4	12	17	The baby touches the hamster.wav	19	declarative	~The hamster is touched by the baby right.jpg	~The hamster is touched by the baby wrong.jpg	~The hamster is touched by the baby right.jpg	0	1	2056	40	2	2056.000000	56.000000	2000.000000	2796.514497	1978.000000	802.106355	9.607692	0.385137	0.000000	47.000000
1	4	12	18	The cabinet is near the chalkboard.wav	20	preposition	~The cabinet is near the chalkboard right.jpg	~The cabinet is near the chalkboard wrong.jpg	~The cabinet is near the chalkboard right.jpg	0	1	1618	212	2	1618.000000	258.000000	1360.000000	9580.758785	1540.000000	1398.217247	346.941748	1.353350	1.000000	29.000000
1	4	12	19	The actor brought pears to the actress.wav	21	dative	~The actor brought pears to the actress wrong.jpg	~The actor brought pears to the actress right.jpg	~The actor brought pears to the actress right.jpg	0	2	2228	119	1	2228.000000	166.000000	2062.000000	942.897111	947.000000	846.866821	29.451154	0.490664	1.000000	20.000000
1	4	12	20	The gentleman bought flowers for his love.wav	22	dative	~The gentleman bought flowers for his love right.jpg	~The gentleman bought flowers for his love wrong.jpg	~The gentleman bought flowers for his love right.jpg	0	1	1947	40	2	1947.000000	56.000000	1891.000000	1187.029701	1869.000000	846.435569	27.395161	0.518622	0.000000	36.000000
1	4	12	21	The basket is on the blanket.wav	23	preposition	~The basket is on the blanket right.jpg	~The basket is on the blanket wrong.jpg	~The basket is on the blanket right.jpg	0	1	1368	24	2	1368.000000	3.000000	1365.000000	1624.625875	243.000000	860.205248	1.265674	0.471976	0.000000	9.000000
1	4	12	22	The lady stiring juice feels thirsty.wav	24	RC	~The lady stiring juice feels thirsty right.jpg	~The lady stiring juice feels thirsty wrong.jpg	~The lady stiring juice feels thirsty right.jpg	0	1	1993	40	2	1993.000000	40.000000	1953.000000	1101.030667	243.000000	828.910786	8.934133	0.514196	0.000000	44.000000
1	4	12	23	The boxer is punched by the kangeroo.wav	25	passive	~The boxer is punched by the kangeroo wrong.jpg	~The boxer is punched by the kangeroo right.jpg	~The boxer is punched by the kangeroo right.jpg	0	2	1807	41	1	1807.000000	73.000000	1734.000000	1659.057335	588.000000	816.254337	0.985355	0.491039	0.000000	34.000000
1	4	12	24	The hero is killed by the robber.wav	26	passive	~The hero is killed by the robber wrong.jpg	~The hero is killed by the robber right.jpg	~The hero is killed by the robber right.jpg	0	2	1806	40	1	1790.000000	40.000000	1750.000000	6118.126776	1493.000000	1428.895588	339.500000	1.244412	1.000000	21.000000
1	4	12	25	The duck was led by the penguin.wav	27	passive	~The duck was led by the penguin right.jpg	~The duck was led by the penguin wrong.jpg	~The duck was led by the penguin right.jpg	0	1	1712	40	2	1712.000000	87.000000	1625.000000	1998.006608	1633.000000	872.074075	30.727829	0.553895	0.000000	24.000000
1	4	12	26	The dog was bitten by the snake.wav	28	passive	~The dog was bitten by the snake right.jpg	~The dog was bitten by the snake wrong.jpg	~The dog was bitten by the snake right.jpg	0	1	1760	57	2	1760.000000	73.000000	1687.000000	1097.618340	526.000000	846.500104	4.475547	0.485065	0.000000	23.000000
1	4	12	27	The grandpaw told stories to the boy.wav	29	dative	~The grandpaw told stories to the boy right.jpg	~The grandpaw told stories to the boy wrong.jpg	~The grandpaw told stories to the boy right.jpg	0	1	2493	40	2	2493.000000	71.000000	2422.000000	848.934527	462.000000	834.052692	0.346429	0.465824	0.000000	59.000000
1	4	12	28	The boss left two keys for the janitor.wav	30	dative	~The boss left two keys for the janitor right.jpg	~The boss left two keys for the janitor wrong.jpg	~The boss left two keys for the janitor right.jpg	0	1	2745	135	2	2745.000000	151.000000	2594.000000	3568.262790	2526.000000	1669.633429	458.640000	1.384997	1.000000	19.000000
1	4	12	29	The student drawing maps has glasses.wav	31	RC	~The student drawing maps has glasses wrong.jpg	~The student drawing maps has glasses right.jpg	~The student drawing maps has glasses right.jpg	0	2	3057	120	1	3057.000000	151.000000	2906.000000	1556.435591	1432.000000	809.919796	1.772588	0.397897	2.000000	59.000000
1	4	12	30	The cafe is at the corner.wav	32	preposition	~The cafe is at the corner wrong.jpg	~The cafe is at the corner right.jpg	~The cafe is at the corner right.jpg	0	2	1728	40	1	1728.000000	87.000000	1641.000000	2127.792778	1290.000000	840.360148	114.718182	0.685171	1.000000	17.000000
1	4	12	31	The nurse hugs the surgeon.wav	33	declarative	~The surgeon is hugged by the nurse wrong.jpg	~The surgeon is hugged by the nurse right.jpg	~The surgeon is hugged by the nurse right.jpg	0	2	1603	24	1	1603.000000	24.000000	1579.000000	1963.415460	1524.000000	848.405789	116.533981	0.634432	0.000000	16.000000
1	4	12	32	The cloud hides the sun.wav	34	declarative	~The sun is hidden by the cloud right.jpg	~The sun is hidden by the cloud wrong.jpg	~The sun is hidden by the cloud right.jpg	0	1	2650	40	2	2650.000000	56.000000	2594.000000	7833.333333	2415.000000	2887.027440	322.382713	1.328307	3.000000	26.000000
1	4	12	33	The driver explained the route to the girl.wav	35	dative	~The driver explained the route to the girl wrong.jpg	~The driver explained the route to the girl right.jpg	~The driver explained the route to the girl right.jpg	0	2	2884	181	1	2884.000000	228.000000	2656.000000	6814.527310	2806.000000	1511.634321	288.505435	1.207905	2.000000	14.000000
1	4	12	34	The coach threw the bottle to the boy.wav	36	dative	~The coach threw the bottle to the boy wrong.jpg	~The coach threw the bottle to the boy right.jpg	~The coach threw the bottle to the boy right.jpg	0	2	2430	39	1	2430.000000	39.000000	2391.000000	2990.495087	1680.000000	1511.122416	293.251613	1.208588	1.000000	19.000000
1	4	12	35	The man eating snacks is watching tv.wav	37	RC	~The man eating snacks is watching tv wrong.jpg	~The man eating snacks is watching tv right.jpg	~The man eating snacks is watching tv right.jpg	0	2	1978	134	1	1978.000000	166.000000	1812.000000	5676.471930	1806.000000	1502.663464	384.031746	1.152563	1.000000	17.000000
1	4	12	36	The daughter made a sweater for her dad.wav	38	dative	~The daughter made a sweater for her dad right.jpg	~The daughter made a sweater for her dad wrong.jpg	~The daughter made a sweater for her dad right.jpg	0	1	2368	118	2	2368.000000	134.000000	2234.000000	9281.981386	2024.000000	1861.611548	261.138896	1.071163	2.000000	22.000000
1	4	12	37	The clerk handed change to the shopper.wav	39	dative	~The clerk handed change to the shopper right.jpg	~The clerk handed change to the shopper wrong.jpg	~The clerk handed change to the shopper right.jpg	0	1	2228	71	2	2228.000000	103.000000	2125.000000	2616.598854	634.000000	936.823347	4.117171	0.477205	2.000000	19.000000
1	4	12	38	The robber shoots the policeman.wav	40	declarative	~The policeman is shot by the robber wrong.jpg	~The policeman is shot by the robber right.jpg	~The policeman is shot by the robber right.jpg	0	2	1571	40	1	1571.000000	102.000000	1469.000000	4015.621326	1259.000000	1406.518876	328.740000	1.167614	1.000000	13.000000
1	4	12	39	The tiger lifts the bear.wav	41	declarative	~The bear was lifted by the tiger right.jpg	~The bear was lifted by the tiger wrong.jpg	~The bear was lifted by the tiger right.jpg	0	1	1446	40	2	1446.000000	24.000000	1422.000000	1401.285165	415.000000	806.879262	0.001792	0.520174	0.000000	27.000000
1	4	12	40	The skier was crushed by the snowboard.wav	42	passive	~The skier was crushed by the snowboard right.jpg	~The skier was crushed by the snowboard wrong.jpg	~The skier was crushed by the snowboard right.jpg	0	1	2024	40	2	2024.000000	24.000000	2000.000000	2498.750512	55.000000	808.454542	0.086846	0.460172	2.000000	25.000000
1	4	12	41	The monkey is under the box.wav	43	preposition	~The monkey is under the box wrong.jpg	~The monkey is under the box right.jpg	~The monkey is under the box right.jpg	0	2	1633	40	1	1618.000000	24.000000	1594.000000	8622.651587	1493.000000	1710.459641	569.338664	1.043821	1.000000	24.000000
1	4	12	42	The clock is by the entrance door.wav	44	preposition	~The clock is by the entrance door right.jpg	~The clock is by the entrance door wrong.jpg	~The clock is by the entrance door right.jpg	0	1	1711	165	2	1711.000000	165.000000	1546.000000	7504.298960	1290.000000	1622.140815	340.277731	1.411499	1.000000	19.000000
1	4	12	43	The woman poured juice for the guest.wav	45	dative	~The woman poured juice for the guest right.jpg	~The woman poured juice for the guest wrong.jpg	~The woman poured juice for the guest right.jpg	0	1	1807	26	2	1807.000000	41.000000	1766.000000	1677.464180	88.000000	842.072987	0.040255	0.457887	0.000000	39.000000
1	4	12	44	The girl using a phone needs a cab.wav	46	RC	~The girl using a phone needs a cab wrong.jpg	~The girl using a phone needs a cab right.jpg	~The girl using a phone needs a cab right.jpg	0	2	2618	40	1	2618.000000	40.000000	2578.000000	1437.566706	72.000000	838.432000	0.010894	0.510060	0.000000	40.000000
1	4	12	45	The zebra kicks the horse.wav	47	declarative	~The horse is kicked by the zebra right.jpg	~The horse is kicked by the zebra wrong.jpg	~The horse is kicked by the zebra right.jpg	0	1	1493	40	2	1478.000000	25.000000	1453.000000	8389.954059	1400.000000	1484.888517	453.553191	1.242474	1.000000	13.000000
1	4	12	46	The bus hits the motorcycle.wav	48	declarative	~The motercycle is hit by the bus wrong.jpg	~The motercycle is hit by the bus right.jpg	~The motercycle is hit by the bus right.jpg	0	2	1446	40	1	1446.000000	24.000000	1422.000000	2767.160600	1337.000000	866.537608	61.827281	0.603211	2.000000	12.000000
1	4	12	47	The nurse drying her hair is singing.wav	49	RC	~The nurse drying her hair is singing right.jpg	~The nurse drying her hair is singing wrong.jpg	~The nurse drying her hair is singing right.jpg	0	1	1806	40	2	1806.000000	24.000000	1782.000000	1289.293914	24.000000	776.275656	8.702059	0.449968	0.000000	26.000000
1	4	12	48	The husband was fed by his wife.wav	50	passive	~The husband was fed by his wife right.jpg	~The husband was fed by his wife wrong.jpg	~The husband was fed by his wife right.jpg	0	1	2009	40	2	2009.000000	71.000000	1938.000000	1278.722744	71.000000	803.981543	1.679688	0.456183	0.000000	31.000000
1	4	12	49	The athlete jumping rope is sweating.wav	51	RC	~The athlete jumping rope is sweating right.jpg	~The athlete jumping rope is sweating wrong.jpg	~The athlete jumping rope is sweating right.jpg	0	1	2151	42	2	2151.000000	26.000000	2125.000000	2361.087446	1292.000000	828.536284	0.000000	0.509125	0.000000	41.000000
1	4	12	50	The waiter carrying trays likes food.wav	52	RC	~The waiter carrying trays likes food right.jpg	~The waiter carrying trays likes food wrong.jpg	~The waiter carrying trays likes food right.jpg	0	1	2932	25	2	2932.000000	72.000000	2860.000000	1368.988282	1619.000000	849.692649	0.276397	0.452741	2.000000	33.000000
1	4	12	51	The pig was followed by the hen.wav	53	passive	~The pig was followed by the hen wrong.jpg	~The pig was followed by the hen right.jpg	~The pig was followed by the hen right.jpg	0	2	2431	306	1	2431.000000	337.000000	2094.000000	5352.932496	1993.000000	1548.030417	363.738710	1.327506	1.000000	11.000000
1	4	12	52	The nephew showed the website to his aunt.wav	54	dative	~The nephew showed the website to his aunt right.jpg	~The nephew showed the website to his aunt wrong.jpg	~The nephew showed the website to his aunt right.jpg	0	1	2524	40	2	2524.000000	71.000000	2453.000000	2346.940937	1837.000000	1373.414926	40.121739	0.499933	4.000000	22.000000
1	4	12	53	The puppy was licked by the kitten.wav	55	passive	~The puppy was licked by the kitten right.jpg	~The puppy was licked by the kitten wrong.jpg	~The puppy was licked by the kitten right.jpg	0	1	1790	40	2	1790.000000	55.000000	1735.000000	5008.002935	1524.000000	1465.269133	119.495886	0.683209	2.000000	12.000000
1	4	12	54	The maid folding clothes is wearing braclets.wav	56	RC	~The maid folding clothes is wearing braclets right.jpg	~The maid folding clothes is wearing braclets wrong.jpg	~The maid folding clothes is wearing braclets right.jpg	0	1	2994	41	2	2994.000000	72.000000	2922.000000	1481.704108	119.000000	1656.642862	414.992147	1.430567	1.000000	15.000000
1	4	12	55	The arrow is between the squares.wav	57	preposition	~The arrow is between the squares right.jpg	~The arrow is between the squares wrong.jpg	~The arrow is between the squares right.jpg	0	1	2025	87	2	2025.000000	150.000000	1875.000000	1166.030764	1243.000000	863.401798	70.156008	0.487873	2.000000	21.000000
1	4	12	56	The elephant was washed by the worker.wav	58	passive	~The elephant was washed by the worker wrong.jpg	~The elephant was washed by the worker right.jpg	~The elephant was washed by the worker right.jpg	0	2	1776	182	1	1776.000000	198.000000	1578.000000	3390.879760	1635.000000	1312.336153	309.176991	1.138847	3.000000	19.000000
1	4	12	57	The bird is above the big tree.wav	59	preposition	~The bird is above the big tree right.jpg	~The bird is above the big tree wrong.jpg	~The bird is above the big tree right.jpg	0	1	1477	102	2	1477.000000	118.000000	1359.000000	3194.967723	1102.000000	886.926662	78.925074	0.508011	0.000000	13.000000
1	4	12	58	The grandmother finds the grandson.wav	60	declarative	~The grandson is found by his grandmother wrong.jpg	~The grandson is found by his grandmother right.jpg	~The grandson is found by his grandmother right.jpg	0	2	2618	87	1	2618.000000	118.000000	2500.000000	3358.974359	2290.000000	1680.880777	522.589820	1.209083	3.000000	19.000000
1	4	12	59	The hamster is outside the cage.wav	61	preposition	~The hamster is outside the cage wrong.jpg	~The hamster is outside the cage right.jpg	~The hamster is outside the cage right.jpg	0	2	1619	40	1	1619.000000	40.000000	1579.000000	5257.340709	1400.000000	1488.978606	452.043689	1.173510	3.000000	15.000000
1	4	12	60	The rabbit is in the red box.wav	62	preposition	~The rabbit is in the red box wrong.jpg	~The rabbit is in the red box right.jpg	~The rabbit is in the red box right.jpg	0	2	1821	40	1	1821.000000	40.000000	1781.000000	8180.660185	1508.000000	1854.125108	480.467166	1.090314	1.000000	6.000000
1	4	12	61	The farmer returned cups to his neighbor.wav	63	dative	~The farmer returned cups to his neighbor wrong.jpg	~The farmer returned cups to his neighbor right.jpg	~The farmer returned cups to his neighbor right.jpg	0	2	2774	55	1	2774.000000	102.000000	2672.000000	1890.674443	1790.000000	1261.165773	210.331664	1.035167	4.000000	16.000000
1	4	12	62	The seagull chases the tourist.wav	64	declarative	~The tourist is chased by the seagull wrong.jpg	~The tourist is chased by the seagull right.jpg	~The tourist is chased by the seagull right.jpg	0	2	1506	40	1	1506.000000	71.000000	1435.000000	3500.421635	1271.000000	1279.732898	382.468750	1.007015	1.000000	5.000000
1	4	12	63	The teacher writing words likes spelling.wav	65	RC	~The teacher writing words likes spelling wrong.jpg	~The teacher writing words likes spelling right.jpg	~The teacher writing words likes spelling right.jpg	0	2	2900	103	1	2900.000000	119.000000	2781.000000	3278.959349	2822.000000	1219.384402	282.359459	0.987036	2.000000	34.000000
1	4	12	64	The child delivered mail to the woman.wav	66	dative	~The child delivered mail to the woman right.jpg	~The child delivered mail to the woman wrong.jpg	~The child delivered mail to the woman right.jpg	0	1	2118	197	2	2118.000000	212.000000	1906.000000	2738.646189	306.000000	1132.684799	138.211830	0.773838	5.000000	5.000000
1	4	12	65	The car is inside the garage.wav	67	preposition	~The car is inside the garage right.jpg	~The car is inside the garage wrong.jpg	~The car is inside the garage right.jpg	0	1	1290	55	2	1290.000000	102.000000	1188.000000	4017.289376	1211.000000	928.786419	169.597561	0.795953	2.000000	6.000000
1	4	12	66	The father lent money to his daughter.wav	68	dative	~The father lent money to his daughter right.jpg	~The father lent money to his daughter wrong.jpg	~The father lent money to his daughter right.jpg	0	1	3009	181	2	3009.000000	228.000000	2781.000000	2852.268882	2853.000000	1210.740538	208.552083	0.866477	4.000000	8.000000
1	4	12	67	The boy is pushed by his sister.wav	69	passive	~The boy is pushed by his sister right.jpg	~The boy is pushed by his sister wrong.jpg	~The boy is pushed by his sister right.jpg	0	1	2932	41	2	2932.000000	57.000000	2875.000000	2404.211561	2792.000000	1023.911716	123.516704	0.722112	2.000000	14.000000
1	4	12	68	The fish eats the fisherman.wav	70	declarative	~The fisherman is eaten by the fish wrong.jpg	~The fisherman is eaten by the fish right.jpg	~The fisherman is eaten by the fish right.jpg	0	2	1743	102	1	1743.000000	165.000000	1578.000000	2995.125193	352.000000	1107.922890	212.585586	0.875101	5.000000	13.000000
1	4	12	69	The chef was suprised by the mailman.wav	71	passive	~The chef was suprised by the mailman right.jpg	~The chef was suprised by the mailman wrong.jpg	~The chef was suprised by the mailman right.jpg	0	1	2135	182	2	2135.000000	213.000000	1922.000000	2723.836458	275.000000	1379.729812	156.580882	0.865106	5.000000	13.000000
1	4	12	70	The bird watches the alligator.wav	72	declarative	~The alligator is watched by the bird right.jpg	~The alligator is watched by the bird wrong.jpg	~The alligator is watched by the bird right.jpg	0	1	1680	86	2	1680.000000	102.000000	1578.000000	2183.242865	149.000000	1223.746067	156.387850	0.861524	2.000000	14.000000
1	4	12	71	The groom gave a gift to the bride.wav	73	dative	~The groom gave a gift to the bride right.jpg	~The groom gave a gift to the bride wrong.jpg	~The groom gave a gift to the bride right.jpg	0	1	1805	227	2	1805.000000	243.000000	1562.000000	3833.333333	1555.000000	1584.953769	194.805950	0.822391	2.000000	7.000000
1	4	12	72	The aunt is assisted by her niece.wav	74	passive	~The aunt is assisted by her niece wrong.jpg	~The aunt is assisted by her niece right.jpg	~The aunt is assisted by her niece right.jpg	0	2	2103	87	1	2103.000000	103.000000	2000.000000	1655.830250	1775.000000	1119.819742	128.373134	0.817084	4.000000	6.000000
1	4	12	73	The couple reading the map is lost.wav	75	RC	~The couple reading the map is lost wrong.jpg	~The couple reading the map is lost right.jpg	~The couple reading the map is lost right.jpg	0	2	1587	40	1	1587.000000	40.000000	1547.000000	4096.843382	1337.000000	972.808943	136.462376	0.723504	2.000000	13.000000
1	4	12	74	The guy drinking coffee is reading books.wav	76	RC	~The guy drinking coffee is reading books wrong.jpg	~The guy drinking coffee is reading books right.jpg	~The guy drinking coffee is reading books right.jpg	0	2	2555	40	1	2555.000000	40.000000	2515.000000	1874.119275	87.000000	985.112003	119.650307	0.819107	4.000000	8.000000
1	4	12	75	The guy fixing the fence is using tools.wav	77	RC	~The guy fixing the fence is using tools right.jpg	~The guy fixing the fence is using tools wrong.jpg	~The guy fixing the fence is using tools right.jpg	0	1	2837	40	2	2837.000000	40.000000	2797.000000	2697.468056	103.000000	1051.056817	27.523573	0.783493	5.000000	19.000000
1	4	12	76	The princess slaps the prince.wav	78	declarative	~The prince is slapped by the princess wrong.jpg	~The prince is slapped by the princess right.jpg	~The prince is slapped by the princess right.jpg	0	2	1712	40	1	1712.000000	56.000000	1656.000000	4246.488182	1634.000000	1200.287097	198.220183	0.915827	2.000000	10.000000
1	4	12	77	The maid sweeping the floor has an apron.wav	79	RC	~The maid sweeping the floor has an apron wrong.jpg	~The maid sweeping the floor has an apron right.jpg	~The maid sweeping the floor has an apron right.jpg	0	2	2508	55	1	2508.000000	55.000000	2453.000000	2952.573996	1743.000000	1068.157066	92.231014	0.828000	4.000000	8.000000
1	4	12	78	The turtle was carried by the sheep.wav	80	passive	~The turtle was carried by the sheep right.jpg	~The turtle was carried by the sheep wrong.jpg	~The turtle was carried by the sheep right.jpg	0	1	1962	40	2	1962.000000	40.000000	1922.000000	2731.430993	1837.000000	1352.096825	227.580000	1.107956	3.000000	5.000000
1	4	12	79	The daughter kisses the king.wav	81	declarative	~The king was kissed by his daughter right.jpg	~The king was kissed by his daughter wrong.jpg	~The king was kissed by his daughter right.jpg	0	1	2040	102	2	2040.000000	118.000000	1922.000000	4624.680322	1961.000000	1181.119606	167.009123	0.831867	2.000000	6.000000
1	4	12	80	The panda is colored by the monkey.wav	82	passive	~The panda is colored by the monkey wrong.jpg	~The panda is colored by the monkey right.jpg	~The panda is colored by the monkey right.jpg	0	2	1837	118	1	1837.000000	133.000000	1704.000000	2825.811269	1758.000000	1139.122747	235.410256	1.087453	3.000000	7.000000
1	4	12	81	The cat attacks the fireman.wav	83	declarative	~The fireman is attacked by the cat right.jpg	~The fireman is attacked by the cat wrong.jpg	~The fireman is attacked by the cat right.jpg	0	1	1837	40	2	1837.000000	103.000000	1734.000000	3209.813629	1634.000000	1201.989546	269.226496	0.941895	3.000000	13.000000
1	4	12	82	The lamp is next to the dresser.wav	84	preposition	~The lamp is next to the dresser wrong.jpg	~The lamp is next to the dresser right.jpg	~The lamp is next to the dresser right.jpg	0	2	1588	197	1	1588.000000	213.000000	1375.000000	4129.913345	1244.000000	1218.750862	151.600000	0.849849	6.000000	12.000000
1	4	12	83	The monster is behind the sofa.wav	85	preposition	~The monster is behind the sofa right.jpg	~The monster is behind the sofa wrong.jpg	~The monster is behind the sofa right.jpg	0	1	1463	41	2	1463.000000	26.000000	1437.000000	3939.070019	1385.000000	1083.408547	165.272090	0.733326	2.000000	4.000000
1	5	13	1	The children like sliding down the slide.wav	2	practice	~The children like sliding down the slide right.jpg	~The children like sliding down the slide wrong.jpg	~The children like sliding down the slide right.jpg	0	1	2127	1486	2	2127.000000	1486.000000	641.000000	3816.888224	1721.000000	927.441869	138.107407	0.575317	0.000000	8.000000
1	5	13	2	The classmates are holding hands.wav	3	practice	~The classmates are holding hands wrong.jpg	~The classmates are holding hands right.jpg	~The classmates are holding hands right.jpg	0	2	1743	212	1	1743.000000	227.000000	1516.000000	3267.578575	1555.000000	1189.490150	281.878378	0.927796	2.000000	14.000000
1	5	13	3	The housewife is washing the car.wav	4	practice	~The housewife is washing the car wrong.jpg	~The housewife is washing the car right.jpg	~The housewife is washing the car right.jpg	0	2	1930	633	1	1930.000000	633.000000	1297.000000	2586.397718	1462.000000	952.329259	135.715447	0.757287	0.000000	6.000000
1	5	13	4	The person shivering caught a cold.wav	5	practice	~The person shivering caught a cold right.jpg	~The person shivering caught a cold wrong.jpg	~The person shivering caught a cold right.jpg	0	1	1462	837	2	1462.000000	853.000000	609.000000	6195.899573	1384.000000	808.829820	194.446237	0.724770	0.000000	16.000000
1	5	13	5	The policeman caught a theif.wav	6	practice	~The policeman caught a theif right.jpg	~The policeman caught a theif wrong.jpg	~The policeman caught a theif right.jpg	0	1	1603	384	2	1603.000000	384.000000	1219.000000	2151.696222	1321.000000	954.325971	163.431373	0.804602	2.000000	10.000000
1	5	13	6	The secretary answered the call.wav	7	practice	~The secretary answered the call right.jpg	~The secretary answered the call wrong.jpg	~The secretary answered the call right.jpg	0	1	2134	1587	2	2134.000000	1587.000000	547.000000	5878.150093	1978.000000	867.872855	199.235294	0.561573	0.000000	6.000000
1	5	13	7	The worker has a white mustache.wav	8	practice	~The worker has a white mustache wrong.jpg	~The worker has a white mustache right.jpg	~The worker has a white mustache right.jpg	0	2	2352	196	1	2352.000000	196.000000	2156.000000	6087.165245	2133.000000	1515.981455	261.186667	0.950679	3.000000	29.000000
1	5	13	8	The postman is holding a letter.wav	9	practice	~The postman is holding a letter right.jpg	~The postman is holding a letter wrong.jpg	~The postman is holding a letter right.jpg	0	1	1994	119	2	1994.000000	119.000000	1875.000000	1461.294806	1900.000000	990.878402	135.492126	0.843837	2.000000	14.000000
1	5	13	9	The student watering flowers loves plants.wav	11	RC	~The student watering flowers loves plants wrong.jpg	~The student watering flowers loves plants right.jpg	~The student watering flowers loves plants right.jpg	0	2	3477	243	1	3477.000000	243.000000	3234.000000	1507.025812	243.000000	1106.756193	216.788288	0.951852	3.000000	23.000000
1	5	13	10	The ball is in front of the box.wav	12	preposition	~The ball is in front of the box right.jpg	~The ball is in front of the box wrong.jpg	~The ball is in front of the box wrong.jpg	1	2	2822	181	2	2822.000000	181.000000	2641.000000	2644.690636	2478.000000	1126.146524	198.794444	0.909920	2.000000	12.000000
1	5	13	11	The fish eats the fisherman.wav	13	declarative	~The fisherman is eaten by the fish wrong.jpg	~The fisherman is eaten by the fish right.jpg	~The fisherman is eaten by the fish right.jpg	0	2	2681	134	1	2681.000000	149.000000	2532.000000	3605.123637	446.000000	1311.761206	355.903509	1.175655	1.000000	12.000000
1	5	13	12	The aunt is assisted by her niece.wav	14	passive	~The aunt is assisted by her niece wrong.jpg	~The aunt is assisted by her niece right.jpg	~The aunt is assisted by her niece right.jpg	0	2	2822	369	1	2822.000000	400.000000	2422.000000	1785.522270	2744.000000	892.385612	203.030387	0.725016	1.000000	6.000000
1	5	13	13	The pig was followed by the hen.wav	15	passive	~The pig was followed by the hen wrong.jpg	~The pig was followed by the hen right.jpg	~The pig was followed by the hen right.jpg	0	2	2947	509	1	2931.000000	525.000000	2406.000000	3575.294572	2790.000000	930.103304	177.117647	0.741380	3.000000	37.000000
1	5	13	14	The grandmother finds the grandson.wav	16	declarative	~The grandson is found by his grandmother wrong.jpg	~The grandson is found by his grandmother right.jpg	~The grandson is found by his grandmother right.jpg	0	2	2883	274	1	2883.000000	274.000000	2609.000000	2345.980380	2586.000000	1138.274743	304.228261	0.982232	1.000000	5.000000
1	5	13	15	The boy is pushed by his sister.wav	17	passive	~The boy is pushed by his sister right.jpg	~The boy is pushed by his sister wrong.jpg	~The boy is pushed by his sister right.jpg	0	1	2508	352	2	2508.000000	368.000000	2140.000000	3324.511361	2368.000000	915.963099	222.543750	0.685904	1.000000	21.000000
1	5	13	16	The hero is killed by the robber.wav	18	passive	~The hero is killed by the robber wrong.jpg	~The hero is killed by the robber right.jpg	~The hero is killed by the robber right.jpg	0	2	2260	135	1	2260.000000	369.000000	1891.000000	2594.383671	1885.000000	1355.866406	190.236111	0.440365	4.000000	11.000000
1	5	13	17	The farmer returned cups to his neighbor.wav	19	dative	~The farmer returned cups to his neighbor wrong.jpg	~The farmer returned cups to his neighbor right.jpg	~The farmer returned cups to his neighbor right.jpg	0	2	2540	337	1	2540.000000	337.000000	2203.000000	2228.612560	2196.000000	921.932286	140.295529	0.709978	0.000000	10.000000
1	5	13	18	The coach threw the bottle to the boy.wav	20	dative	~The coach threw the bottle to the boy wrong.jpg	~The coach threw the bottle to the boy right.jpg	~The coach threw the bottle to the boy right.jpg	0	2	2884	368	1	2884.000000	400.000000	2484.000000	2175.877774	2462.000000	878.819589	172.532609	0.732771	0.000000	10.000000
1	5	13	19	The niece sent a letter to her uncle.wav	21	dative	~The niece sent a letter to her uncle wrong.jpg	~The niece sent a letter to her uncle right.jpg	~The niece sent a letter to her uncle right.jpg	0	2	2696	258	1	2696.000000	258.000000	2438.000000	1608.420217	2462.000000	998.572124	195.197674	0.761496	3.000000	13.000000
1	5	13	20	The student drawing maps has glasses.wav	22	RC	~The student drawing maps has glasses wrong.jpg	~The student drawing maps has glasses right.jpg	~The student drawing maps has glasses right.jpg	0	2	2697	87	1	2697.000000	337.000000	2360.000000	1957.038962	2619.000000	980.406884	213.436047	0.888310	1.000000	7.000000
1	5	13	21	The daughter made a sweater for her dad.wav	23	dative	~The daughter made a sweater for her dad right.jpg	~The daughter made a sweater for her dad wrong.jpg	~The daughter made a sweater for her dad right.jpg	0	1	3212	165	2	3212.000000	181.000000	3031.000000	2734.800239	243.000000	1035.063620	218.270732	0.907989	1.000000	9.000000
1	5	13	22	The grandpaw told stories to the boy.wav	24	dative	~The grandpaw told stories to the boy right.jpg	~The grandpaw told stories to the boy wrong.jpg	~The grandpaw told stories to the boy right.jpg	0	1	2821	165	2	2821.000000	165.000000	2656.000000	2110.560283	2399.000000	1001.848731	189.996431	0.701732	2.000000	11.000000
1	5	13	23	The cloud hides the sun.wav	25	declarative	~The sun is hidden by the cloud right.jpg	~The sun is hidden by the cloud wrong.jpg	~The sun is hidden by the cloud right.jpg	0	1	2290	274	2	2290.000000	274.000000	2016.000000	4484.241185	2102.000000	1120.768939	184.756259	0.846309	4.000000	10.000000
1	5	13	24	The gentleman bought flowers for his love.wav	26	dative	~The gentleman bought flowers for his love right.jpg	~The gentleman bought flowers for his love wrong.jpg	~The gentleman bought flowers for his love right.jpg	0	1	3338	306	2	3338.000000	322.000000	3016.000000	2081.427924	3181.000000	902.509760	125.016432	0.684718	0.000000	40.000000
1	5	13	25	The man cutting a board makes tables.wav	27	RC	~The man cutting a board makes tables right.jpg	~The man cutting a board makes tables wrong.jpg	~The man cutting a board makes tables right.jpg	0	1	3493	258	2	3493.000000	274.000000	3219.000000	1962.746783	2837.000000	964.446976	105.665919	0.803915	1.000000	31.000000
1	5	13	26	The chicken was scared by the crow.wav	28	passive	~The chicken was scared by the crow wrong.jpg	~The chicken was scared by the crow right.jpg	~The chicken was scared by the crow right.jpg	0	2	2806	493	1	2806.000000	493.000000	2313.000000	2763.839399	2681.000000	1185.959275	266.002793	1.059554	1.000000	7.000000
1	5	13	27	The hamster is outside the cage.wav	29	preposition	~The hamster is outside the cage wrong.jpg	~The hamster is outside the cage right.jpg	~The hamster is outside the cage right.jpg	0	2	1852	227	1	1852.000000	227.000000	1625.000000	3039.742168	305.000000	1188.177633	194.864407	0.946814	2.000000	6.000000
1	5	13	28	The turtle was carried by the sheep.wav	30	passive	~The turtle was carried by the sheep right.jpg	~The turtle was carried by the sheep wrong.jpg	~The turtle was carried by the sheep right.jpg	0	1	2133	336	2	2133.000000	336.000000	1797.000000	1691.728399	2040.000000	1005.644365	112.750000	0.809731	4.000000	14.000000
1	5	13	29	The boss left two keys for the janitor.wav	31	dative	~The boss left two keys for the janitor right.jpg	~The boss left two keys for the janitor wrong.jpg	~The boss left two keys for the janitor right.jpg	0	1	4915	149	2	4915.000000	149.000000	4766.000000	5154.253052	4806.000000	2222.480025	213.818471	1.140005	7.000000	21.000000
1	5	13	30	The daughter kisses the king.wav	32	declarative	~The king was kissed by his daughter right.jpg	~The king was kissed by his daughter wrong.jpg	~The king was kissed by his daughter right.jpg	0	1	2650	197	2	2650.000000	197.000000	2453.000000	1454.582045	2072.000000	985.774757	180.573964	0.784336	3.000000	11.000000
1	5	13	31	The man eating snacks is watching tv.wav	33	RC	~The man eating snacks is watching tv wrong.jpg	~The man eating snacks is watching tv right.jpg	~The man eating snacks is watching tv right.jpg	0	2	2244	182	1	2244.000000	228.000000	2016.000000	4417.548915	2135.000000	1013.724285	242.982517	0.885370	4.000000	14.000000
1	5	13	32	The guy drinking coffee is reading books.wav	34	RC	~The guy drinking coffee is reading books wrong.jpg	~The guy drinking coffee is reading books right.jpg	~The guy drinking coffee is reading books right.jpg	0	2	1743	134	1	1743.000000	134.000000	1609.000000	1683.834766	1524.000000	1223.207785	220.837838	1.103124	2.000000	12.000000
1	5	13	33	The monster is behind the sofa.wav	35	preposition	~The monster is behind the sofa right.jpg	~The monster is behind the sofa wrong.jpg	~The monster is behind the sofa right.jpg	0	1	1946	134	2	1946.000000	134.000000	1812.000000	2221.360153	1837.000000	1004.117534	133.217742	0.818588	4.000000	16.000000
1	5	13	34	The princess slaps the prince.wav	36	declarative	~The prince is slapped by the princess wrong.jpg	~The prince is slapped by the princess right.jpg	~The prince is slapped by the princess right.jpg	0	2	2087	134	1	2087.000000	165.000000	1922.000000	2644.750204	1743.000000	1123.777566	219.954887	0.903836	2.000000	8.000000
1	5	13	35	The arrow is between the squares.wav	37	preposition	~The arrow is between the squares right.jpg	~The arrow is between the squares wrong.jpg	~The arrow is between the squares right.jpg	0	1	2368	134	2	2368.000000	196.000000	2172.000000	3918.255911	321.000000	1024.341009	104.856424	0.771325	3.000000	5.000000
1	5	13	36	The bird watches the alligator.wav	38	declarative	~The alligator is watched by the bird right.jpg	~The alligator is watched by the bird wrong.jpg	~The alligator is watched by the bird right.jpg	0	1	2165	102	2	2165.000000	477.000000	1688.000000	2547.139085	571.000000	1068.407625	132.905797	0.791422	2.000000	5.000000
1	5	13	37	The dog was bitten by the snake.wav	39	passive	~The dog was bitten by the snake right.jpg	~The dog was bitten by the snake wrong.jpg	~The dog was bitten by the snake right.jpg	0	1	2274	71	2	2274.000000	274.000000	2000.000000	2572.578161	399.000000	1059.283064	90.324138	0.775983	2.000000	10.000000
1	5	13	38	The bird is above the big tree.wav	40	preposition	~The bird is above the big tree right.jpg	~The bird is above the big tree wrong.jpg	~The bird is above the big tree right.jpg	0	1	1884	150	2	1884.000000	166.000000	1718.000000	3658.227693	1666.000000	971.761770	151.941667	0.812121	1.000000	13.000000
1	5	13	39	The chair is below the window.wav	41	preposition	~The chair is below the window wrong.jpg	~The chair is below the window right.jpg	~The chair is below the window right.jpg	0	2	2118	321	1	2118.000000	336.000000	1782.000000	5203.938946	1977.000000	1038.758928	290.385185	0.883706	1.000000	9.000000
1	5	13	40	The maid sweeping the floor has an apron.wav	42	RC	~The maid sweeping the floor has an apron wrong.jpg	~The maid sweeping the floor has an apron right.jpg	~The maid sweeping the floor has an apron right.jpg	0	2	1760	57	1	1760.000000	135.000000	1625.000000	4055.029041	1635.000000	1074.594878	226.714286	0.919898	4.000000	8.000000
1	5	13	41	The tiger lifts the bear.wav	43	declarative	~The bear was lifted by the tiger right.jpg	~The bear was lifted by the tiger wrong.jpg	~The bear was lifted by the tiger right.jpg	0	1	1712	166	2	1712.000000	166.000000	1546.000000	2825.137205	1556.000000	1016.738837	172.339450	0.916074	3.000000	7.000000
1	5	13	42	The elephant was washed by the worker.wav	44	passive	~The elephant was washed by the worker wrong.jpg	~The elephant was washed by the worker right.jpg	~The elephant was washed by the worker right.jpg	0	2	2165	71	1	2165.000000	227.000000	1938.000000	2836.217189	1946.000000	969.248168	205.536232	0.834560	2.000000	8.000000
1	5	13	43	The teacher writing words likes spelling.wav	45	RC	~The teacher writing words likes spelling wrong.jpg	~The teacher writing words likes spelling right.jpg	~The teacher writing words likes spelling right.jpg	0	2	2868	353	1	2868.000000	353.000000	2515.000000	2665.180568	2681.000000	1145.842833	244.546448	0.880038	2.000000	8.000000
1	5	13	44	The basket is on the blanket.wav	46	preposition	~The basket is on the blanket right.jpg	~The basket is on the blanket wrong.jpg	~The basket is on the blanket right.jpg	0	1	2040	102	2	2040.000000	149.000000	1891.000000	4045.984532	1696.000000	1273.982767	187.044007	0.956880	4.000000	20.000000
1	5	13	45	The couple reading the map is lost.wav	47	RC	~The couple reading the map is lost wrong.jpg	~The couple reading the map is lost right.jpg	~The couple reading the map is lost right.jpg	0	2	3775	260	1	3775.000000	260.000000	3515.000000	5649.439270	3603.000000	1748.208686	367.043568	1.137346	3.000000	7.000000
1	5	13	46	The nephew showed the website to his aunt.wav	48	dative	~The nephew showed the website to his aunt right.jpg	~The nephew showed the website to his aunt wrong.jpg	~The nephew showed the website to his aunt right.jpg	0	1	4477	102	2	4477.000000	102.000000	4375.000000	5410.245686	4399.000000	1778.603135	61.411999	0.589208	6.000000	18.000000
1	5	13	47	The clock is by the entrance door.wav	49	preposition	~The clock is by the entrance door right.jpg	~The clock is by the entrance door wrong.jpg	~The clock is by the entrance door right.jpg	0	1	2822	181	2	2822.000000	368.000000	2454.000000	4184.156682	790.000000	1107.107679	89.495965	0.445993	3.000000	7.000000
1	5	13	48	The panda is colored by the monkey.wav	50	passive	~The panda is colored by the monkey wrong.jpg	~The panda is colored by the monkey right.jpg	~The panda is colored by the monkey right.jpg	0	2	2602	399	1	2602.000000	415.000000	2187.000000	3847.068645	2336.000000	1022.972594	204.578313	0.932536	4.000000	4.000000
1	5	13	49	The cabinet is near the chalkboard.wav	51	preposition	~The cabinet is near the chalkboard right.jpg	~The cabinet is near the chalkboard wrong.jpg	~The cabinet is near the chalkboard right.jpg	0	1	4275	40	2	4275.000000	71.000000	4204.000000	6113.924051	3977.000000	2526.811165	218.873896	0.795835	8.000000	16.000000
1	5	13	50	The waiter carrying trays likes food.wav	52	RC	~The waiter carrying trays likes food right.jpg	~The waiter carrying trays likes food wrong.jpg	~The waiter carrying trays likes food right.jpg	0	1	2791	150	2	2791.000000	182.000000	2609.000000	3438.466199	2713.000000	1222.296681	153.308989	0.813514	3.000000	15.000000
1	5	13	51	The driver explained the route to the girl.wav	53	dative	~The driver explained the route to the girl wrong.jpg	~The driver explained the route to the girl right.jpg	~The driver explained the route to the girl right.jpg	0	2	4181	774	1	4181.000000	1009.000000	3172.000000	9332.237692	4103.000000	1616.211597	295.166667	1.319778	3.000000	31.000000
1	5	13	52	The nurse drying her hair is singing.wav	54	RC	~The nurse drying her hair is singing right.jpg	~The nurse drying her hair is singing wrong.jpg	~The nurse drying her hair is singing right.jpg	0	1	3196	117	2	3196.000000	258.000000	2938.000000	2439.516804	352.000000	980.133269	133.534821	0.777271	5.000000	5.000000
1	5	13	53	The car is inside the garage.wav	55	preposition	~The car is inside the garage right.jpg	~The car is inside the garage wrong.jpg	~The car is inside the garage right.jpg	0	1	2102	55	2	2102.000000	102.000000	2000.000000	2839.872521	540.000000	1306.492124	177.597015	0.863182	4.000000	6.000000
1	5	13	54	The child delivered mail to the woman.wav	56	dative	~The child delivered mail to the woman right.jpg	~The child delivered mail to the woman wrong.jpg	~The child delivered mail to the woman right.jpg	0	1	2571	39	2	2571.000000	55.000000	2516.000000	4954.920698	2477.000000	1437.988045	330.560976	0.894382	5.000000	15.000000
1	5	13	55	The cafe is at the corner.wav	57	preposition	~The cafe is at the corner wrong.jpg	~The cafe is at the corner right.jpg	~The cafe is at the corner right.jpg	0	2	2307	213	1	2307.000000	245.000000	2062.000000	3374.621203	2182.000000	1396.964235	290.081633	0.882018	4.000000	9.000000
1	5	13	56	The guy fixing the fence is using tools.wav	58	RC	~The guy fixing the fence is using tools right.jpg	~The guy fixing the fence is using tools wrong.jpg	~The guy fixing the fence is using tools right.jpg	0	1	3072	150	2	3072.000000	150.000000	2922.000000	5468.677447	212.000000	1646.129716	101.570199	0.823395	5.000000	7.000000
1	5	13	57	The puppy was licked by the kitten.wav	59	passive	~The puppy was licked by the kitten right.jpg	~The puppy was licked by the kitten wrong.jpg	~The puppy was licked by the kitten right.jpg	0	1	2524	71	2	2524.000000	384.000000	2140.000000	5013.729061	540.000000	1216.923193	81.700311	0.641324	2.000000	6.000000
1	5	13	58	The nurse hugs the surgeon.wav	60	declarative	~The surgeon is hugged by the nurse wrong.jpg	~The surgeon is hugged by the nurse right.jpg	~The surgeon is hugged by the nurse right.jpg	0	2	3040	87	1	3040.000000	259.000000	2781.000000	2947.850585	2915.000000	1003.331514	126.876342	0.901613	2.000000	6.000000
1	5	13	59	The actor brought pears to the actress.wav	61	dative	~The actor brought pears to the actress wrong.jpg	~The actor brought pears to the actress right.jpg	~The actor brought pears to the actress right.jpg	0	2	4306	40	1	4306.000000	180.000000	4126.000000	3639.680879	259.000000	1206.856585	103.062668	0.870722	4.000000	10.000000
1	5	13	60	The girl using a phone needs a cab.wav	62	RC	~The girl using a phone needs a cab wrong.jpg	~The girl using a phone needs a cab right.jpg	~The girl using a phone needs a cab right.jpg	0	2	4073	26	1	4073.000000	151.000000	3922.000000	5073.494837	3995.000000	1683.094350	341.848011	0.777436	4.000000	10.000000
1	5	13	61	The baby touches the hamster.wav	63	declarative	~The hamster is touched by the baby right.jpg	~The hamster is touched by the baby wrong.jpg	~The hamster is touched by the baby right.jpg	0	1	2274	55	2	2274.000000	290.000000	1984.000000	3020.499242	2196.000000	1243.942999	198.455172	0.934083	5.000000	13.000000
