subject	trial	stimfile	condition	code	response	distractor	initTime	rt	DV_inmot	DV_dist	DV_velmax	DV_velmax_start	DV_acc_flips	DV_ADavg	DV_AUC	DV_initang	DV_dist_maxveloc	DV_ang_tot	DV_angflp_lat	DV_angflp_mot
2314	20	The grandmother finds the grandson.wav	1	declarative	2	1	141.000000	2453.000000	2312.000000	1.654048	51.269935	10.000000	28.000000	0.154248	0.748651	-4.944818	0.067898	18.000000	2.000000	14.000000
2314	22	The cloud hides the sun.wav	1	declarative	1	2	125.000000	1531.000000	1406.000000	1.580022	56.568405	87.000000	35.000000	0.235144	0.675835	0.107598	1.115511	11.000000	6.000000	5.000000
2314	25	The bird watches the alligator.wav	1	declarative	1	2	140.000000	3297.000000	3157.000000	1.624530	50.583341	93.000000	19.000000	0.220125	0.730979	-1.245364	1.281080	14.000000	4.000000	10.000000
2314	28	The bus hits the motorcycle.wav	1	declarative	2	1	234.000000	1937.000000	1703.000000	1.562140	48.140027	66.000000	37.000000	0.177304	0.624823	-0.625119	0.571489	14.000000	8.000000	6.000000
2314	29	The seagull chases the tourist.wav	1	declarative	2	1	219.000000	2359.000000	2140.000000	2.086800	127.503894	94.000000	14.000000	0.462827	0.973247	-4.193756	1.326562	11.000000	2.000000	8.000000
2314	45	The kid tickles the mom.wav	1	declarative	1	2	32.000000	2360.000000	2328.000000	2.163170	139.052844	92.000000	17.000000	0.392699	0.924794	-4.658424	1.176076	7.000000	2.000000	5.000000
2314	49	The daughter kisses the king.wav	1	declarative	1	2	78.000000	2766.000000	2688.000000	1.712079	53.197435	96.000000	21.000000	0.146061	0.636728	1.723279	1.446092	13.000000	1.000000	12.000000
2314	54	The fish eats the fisherman.wav	1	declarative	2	1	31.000000	2406.000000	2375.000000	1.950046	125.885859	96.000000	33.000000	0.491548	0.858796	-13.807949	1.320617	19.000000	5.000000	13.000000
2314	60	The tiger lifts the bear.wav	1	declarative	1	2	110.000000	3969.000000	3859.000000	3.353309	209.212030	96.000000	24.000000	0.685110	1.015594	-23.876032	2.307249	18.000000	4.000000	14.000000
2314	64	The princess slaps the prince.wav	1	declarative	2	1	125.000000	3062.000000	2937.000000	1.670705	55.745839	77.000000	19.000000	0.249805	0.666310	-6.989705	0.861288	9.000000	1.000000	7.000000
2314	66	The nurse hugs the surgeon.wav	1	declarative	2	1	344.000000	3766.000000	3422.000000	1.634191	110.053499	94.000000	18.000000	0.071640	0.468803	6.214891	0.944810	4.000000	1.000000	3.000000
2314	71	The baby touches the hamster.wav	1	declarative	1	2	31.000000	2125.000000	2094.000000	1.679644	49.932985	82.000000	29.000000	0.161821	0.702390	-1.954475	0.985651	9.000000	1.000000	8.000000
2314	74	The cat attacks the fireman.wav	1	declarative	1	2	47.000000	2563.000000	2516.000000	1.740548	115.244501	84.000000	13.000000	0.151639	0.710451	-18.640692	0.582948	6.000000	2.000000	4.000000
2314	83	The robber shoots the policeman.wav	1	declarative	2	1	32.000000	3703.000000	3671.000000	1.957571	105.909278	2.000000	7.000000	0.430760	0.792033	-19.769065	0.014994	11.000000	0.000000	11.000000
377	12	The princess slaps the prince.wav	1	declarative	2	1	47.000000	1906.000000	1859.000000	1.778635	138.802560	87.000000	10.000000	0.287405	0.850441	-2.577667	0.921951	16.000000	4.000000	12.000000
377	16	The fish eats the fisherman.wav	1	declarative	2	1	31.000000	2172.000000	2141.000000	1.754098	66.542600	4.000000	27.000000	0.288989	0.826195	-0.662720	0.047644	9.000000	1.000000	8.000000
377	18	The cat attacks the fireman.wav	1	declarative	1	2	32.000000	1891.000000	1859.000000	1.590683	44.769021	96.000000	26.000000	0.176129	0.588627	-9.878928	1.366838	6.000000	1.000000	4.000000
377	21	The kid tickles the mom.wav	1	declarative	1	2	47.000000	2218.000000	2171.000000	1.549586	60.228040	86.000000	28.000000	0.185789	0.659953	-13.254955	0.915913	20.000000	3.000000	17.000000
377	23	The bus hits the motorcycle.wav	1	declarative	2	1	94.000000	2578.000000	2484.000000	1.653546	40.026708	58.000000	21.000000	0.191938	0.724083	-0.486370	0.673643	18.000000	1.000000	16.000000
377	24	The seagull chases the tourist.wav	1	declarative	2	1	47.000000	2625.000000	2578.000000	2.115920	87.880089	77.000000	31.000000	0.367550	1.000039	1.049069	1.118893	8.000000	1.000000	7.000000
377	27	The bird watches the alligator.wav	1	declarative	1	2	47.000000	3078.000000	3031.000000	1.544855	61.802308	78.000000	31.000000	0.164135	0.683259	-7.290802	0.859815	24.000000	3.000000	20.000000
377	38	The nurse hugs the surgeon.wav	1	declarative	2	1	63.000000	2360.000000	2297.000000	1.595286	86.974138	73.000000	37.000000	0.232403	0.698938	-5.582195	0.625602	9.000000	5.000000	4.000000
377	42	The daughter kisses the king.wav	1	declarative	1	2	109.000000	2390.000000	2281.000000	1.623704	47.254142	69.000000	29.000000	0.211651	0.709446	-10.379579	0.692573	20.000000	6.000000	14.000000
377	45	The robber shoots the policeman.wav	1	declarative	2	1	47.000000	2422.000000	2375.000000	1.882030	53.530465	86.000000	30.000000	0.337371	0.933548	-6.044092	1.387002	7.000000	1.000000	6.000000
377	46	The tiger lifts the bear.wav	1	declarative	1	2	94.000000	2047.000000	1953.000000	1.753809	50.550426	95.000000	37.000000	0.245106	0.702575	-4.705507	1.484132	15.000000	1.000000	14.000000
377	58	The baby touches the hamster.wav	1	declarative	1	2	78.000000	2437.000000	2359.000000	1.610488	76.210331	75.000000	38.000000	0.180595	0.588869	-9.594676	0.723645	28.000000	8.000000	20.000000
377	62	The grandmother finds the grandson.wav	1	declarative	2	1	109.000000	3172.000000	3063.000000	2.177866	77.559349	83.000000	22.000000	0.425778	1.128972	-10.621302	1.145052	5.000000	0.000000	5.000000
377	63	The zebra kicks the horse.wav	1	declarative	1	2	110.000000	2250.000000	2140.000000	1.592028	42.303827	79.000000	38.000000	0.189728	0.704737	-8.181263	0.990177	7.000000	3.000000	4.000000
377	79	The cloud hides the sun.wav	1	declarative	1	2	219.000000	2532.000000	2313.000000	1.537645	43.179701	79.000000	27.000000	0.202514	0.679391	-10.862102	0.740934	26.000000	3.000000	23.000000
403	13	The bus hits the motorcycle.wav	1	declarative	2	1	32.000000	1594.000000	1562.000000	1.676077	83.114223	94.000000	45.000000	0.282106	0.748919	0.443285	1.132859	8.000000	1.000000	7.000000
403	18	The cloud hides the sun.wav	1	declarative	1	2	32.000000	1438.000000	1406.000000	1.620829	128.386978	95.000000	38.000000	0.322908	0.793693	0.430990	0.905633	12.000000	2.000000	10.000000
403	21	The grandmother finds the grandson.wav	1	declarative	2	1	46.000000	2093.000000	2047.000000	1.646514	96.017974	96.000000	43.000000	0.300995	0.816244	-1.249988	1.166424	18.000000	2.000000	16.000000
403	29	The robber shoots the policeman.wav	1	declarative	2	1	47.000000	1625.000000	1578.000000	1.580181	133.466928	95.000000	47.000000	0.319527	0.791908	3.020065	0.840932	16.000000	1.000000	15.000000
403	30	The tiger lifts the bear.wav	1	declarative	1	2	187.000000	1687.000000	1500.000000	1.534767	155.856364	96.000000	38.000000	0.300966	0.782782	-5.671735	0.755485	13.000000	8.000000	5.000000
403	35	The nurse hugs the surgeon.wav	1	declarative	2	1	31.000000	1781.000000	1750.000000	1.746661	122.403718	96.000000	46.000000	0.328299	0.802619	0.356978	1.134642	13.000000	2.000000	11.000000
403	46	The cat attacks the fireman.wav	1	declarative	1	2	140.000000	1390.000000	1250.000000	1.751841	117.676639	96.000000	47.000000	0.363486	0.992469	30.932440	1.163458	2.000000	2.000000	0.000000
403	47	The zebra kicks the horse.wav	1	declarative	1	2	94.000000	1688.000000	1594.000000	1.731499	123.951390	96.000000	44.000000	0.333096	0.872973	12.780995	1.111742	2.000000	2.000000	0.000000
403	50	The bird watches the alligator.wav	1	declarative	1	2	344.000000	2204.000000	1860.000000	1.649010	97.628948	96.000000	40.000000	0.248780	0.741863	-19.631207	1.160865	9.000000	4.000000	5.000000
403	57	The daughter kisses the king.wav	1	declarative	1	2	63.000000	1407.000000	1344.000000	1.511041	50.369970	96.000000	46.000000	0.223183	0.730536	-7.369975	1.259191	23.000000	6.000000	16.000000
403	58	The seagull chases the tourist.wav	1	declarative	2	1	141.000000	1688.000000	1547.000000	1.747654	95.966639	88.000000	38.000000	0.338501	0.837382	-6.139900	0.829878	28.000000	3.000000	24.000000
403	60	The princess slaps the prince.wav	1	declarative	2	1	47.000000	1531.000000	1484.000000	1.622900	127.781011	93.000000	41.000000	0.364168	0.733515	-11.743490	0.696152	2.000000	2.000000	0.000000
403	73	The fish eats the fisherman.wav	1	declarative	2	1	125.000000	1454.000000	1329.000000	1.627469	92.736441	91.000000	46.000000	0.284912	0.709529	3.025913	0.821381	12.000000	5.000000	7.000000
403	82	The kid tickles the mom.wav	1	declarative	1	2	140.000000	1484.000000	1344.000000	1.612121	140.049354	96.000000	44.000000	0.299833	0.654951	-3.034727	0.911874	21.000000	16.000000	4.000000
403	84	The baby touches the hamster.wav	1	declarative	1	2	47.000000	1719.000000	1672.000000	1.531226	86.810768	96.000000	43.000000	0.141269	0.690033	-6.834004	1.097172	18.000000	2.000000	16.000000
409	23	The cloud hides the sun.wav	1	declarative	1	2	1891.000000	2250.000000	359.000000	1.503266	192.604999	87.000000	2.000000	0.320338	0.495813	-29.999983	0.143062	5.000000	1.000000	3.000000
409	31	The daughter kisses the king.wav	1	declarative	1	2	1422.000000	2063.000000	641.000000	1.807863	209.152527	85.000000	5.000000	0.238585	0.610718	-14.003596	0.532460	6.000000	0.000000	6.000000
409	32	The robber shoots the policeman.wav	1	declarative	2	1	1625.000000	1812.000000	187.000000	1.640157	214.498259	95.000000	2.000000	0.454877	0.550076	33.395928	0.467297	3.000000	1.000000	1.000000
409	42	The zebra kicks the horse.wav	1	declarative	1	2	141.000000	1625.000000	1484.000000	2.080468	242.703637	14.000000	5.000000	0.209200	0.911514	-3.514511	0.167673	6.000000	1.000000	4.000000
409	47	The tiger lifts the bear.wav	1	declarative	1	2	47.000000	1625.000000	1578.000000	2.067232	146.043268	20.000000	26.000000	0.336175	1.029780	4.344823	0.227377	16.000000	1.000000	14.000000
409	53	The bus hits the motorcycle.wav	1	declarative	2	1	188.000000	2235.000000	2047.000000	2.295169	178.809707	13.000000	6.000000	0.339893	1.022619	-0.192955	0.189481	12.000000	2.000000	9.000000
409	55	The seagull chases the tourist.wav	1	declarative	2	1	110.000000	3157.000000	3047.000000	3.069270	210.383017	6.000000	20.000000	0.407287	1.026083	0.290655	0.076827	11.000000	1.000000	9.000000
409	58	The kid tickles the mom.wav	1	declarative	1	2	359.000000	1406.000000	1047.000000	2.010102	169.361112	29.000000	22.000000	0.262932	1.000865	-1.129306	0.177381	11.000000	2.000000	9.000000
409	60	The princess slaps the prince.wav	1	declarative	2	1	1406.000000	1750.000000	344.000000	1.403111	164.610685	84.000000	2.000000	0.273918	0.597549	19.851812	0.052284	3.000000	1.000000	2.000000
409	61	The cat attacks the fireman.wav	1	declarative	1	2	672.000000	1391.000000	719.000000	1.607811	231.988980	96.000000	8.000000	0.328720	0.613073	-15.428122	0.447866	3.000000	2.000000	0.000000
409	65	The grandmother finds the grandson.wav	1	declarative	2	1	156.000000	2531.000000	2375.000000	2.090861	267.183907	7.000000	1.000000	0.278445	0.970442	0.325643	0.104618	7.000000	1.000000	5.000000
409	68	The nurse hugs the surgeon.wav	1	declarative	2	1	78.000000	2000.000000	1922.000000	2.134429	189.842075	10.000000	2.000000	0.374238	1.074002	-8.133504	0.237773	8.000000	4.000000	4.000000
409	69	The bird watches the alligator.wav	1	declarative	1	2	125.000000	2063.000000	1938.000000	2.127585	210.683060	10.000000	7.000000	0.206984	0.919323	-8.176197	0.189397	4.000000	0.000000	3.000000
409	81	The fish eats the fisherman.wav	1	declarative	2	1	47.000000	2297.000000	2250.000000	2.218063	160.248011	14.000000	8.000000	0.342374	0.982423	-4.730248	0.133169	12.000000	6.000000	6.000000
409	85	The baby touches the hamster.wav	1	declarative	1	2	32.000000	1985.000000	1953.000000	2.237079	216.746070	15.000000	13.000000	0.109641	0.780075	-13.149956	0.452874	12.000000	3.000000	9.000000
487	18	The seagull chases the tourist.wav	1	declarative	2	1	1688.000000	1813.000000	125.000000	1.389246	268.687705	96.000000	0.000000	0.408971	0.454332	49.830420	0.045807	1.000000	0.000000	0.000000
487	33	The grandmother finds the grandson.wav	1	declarative	2	1	157.000000	3172.000000	3015.000000	1.968700	180.013161	93.000000	31.000000	0.468349	0.842763	-11.852680	0.913054	18.000000	17.000000	1.000000
487	34	The bus hits the motorcycle.wav	1	declarative	2	1	31.000000	2343.000000	2312.000000	1.676141	126.764845	82.000000	23.000000	0.221452	0.660727	7.074915	0.658187	7.000000	2.000000	5.000000
487	38	The tiger lifts the bear.wav	1	declarative	1	2	125.000000	2250.000000	2125.000000	1.788231	131.550428	95.000000	28.000000	0.310776	0.654360	-21.176446	1.046631	14.000000	1.000000	13.000000
487	40	The fish eats the fisherman.wav	1	declarative	2	1	125.000000	1844.000000	1719.000000	1.691821	131.306691	90.000000	26.000000	0.353376	0.621753	1.312101	0.662292	12.000000	6.000000	6.000000
487	54	The nurse hugs the surgeon.wav	1	declarative	2	1	219.000000	2329.000000	2110.000000	2.212700	129.356770	89.000000	27.000000	0.300913	0.487549	48.828687	1.303053	8.000000	2.000000	5.000000
487	62	The daughter kisses the king.wav	1	declarative	1	2	78.000000	2609.000000	2531.000000	1.702386	89.759386	72.000000	24.000000	0.277979	0.754286	0.518870	0.459706	11.000000	9.000000	2.000000
487	63	The kid tickles the mom.wav	1	declarative	1	2	359.000000	2297.000000	1938.000000	1.742576	138.880949	83.000000	11.000000	0.089826	0.314709	-69.397254	0.834741	4.000000	2.000000	2.000000
487	64	The princess slaps the prince.wav	1	declarative	2	1	140.000000	2000.000000	1860.000000	2.372622	149.354557	84.000000	23.000000	0.424751	0.906953	-21.137066	1.148640	9.000000	4.000000	4.000000
487	71	The zebra kicks the horse.wav	1	declarative	1	2	156.000000	2437.000000	2281.000000	1.824277	144.706374	92.000000	12.000000	0.438542	0.598249	7.513456	0.759494	8.000000	4.000000	4.000000
487	76	The bird watches the alligator.wav	1	declarative	1	2	406.000000	2922.000000	2516.000000	1.632107	148.522020	86.000000	10.000000	0.312215	0.432997	-25.113400	0.254261	7.000000	4.000000	3.000000
527	21	The nurse hugs the surgeon.wav	1	declarative	2	1	125.000000	1703.000000	1578.000000	2.719395	119.213642	40.000000	14.000000	0.471681	0.950582	13.343183	0.816856	15.000000	2.000000	12.000000
527	24	The fish eats the fisherman.wav	1	declarative	2	1	140.000000	1640.000000	1500.000000	1.565587	91.101063	96.000000	22.000000	0.227587	0.640519	6.949601	1.110082	13.000000	2.000000	11.000000
527	29	The kid tickles the mom.wav	1	declarative	1	2	94.000000	2438.000000	2344.000000	2.783855	176.300506	88.000000	15.000000	0.402032	1.014650	7.727577	1.578488	12.000000	2.000000	10.000000
527	31	The tiger lifts the bear.wav	1	declarative	1	2	78.000000	1844.000000	1766.000000	2.535026	150.569304	86.000000	26.000000	0.428139	1.142974	11.979672	1.517590	12.000000	2.000000	10.000000
527	32	The cat attacks the fireman.wav	1	declarative	1	2	141.000000	1516.000000	1375.000000	2.442292	107.817370	15.000000	19.000000	0.580008	1.169615	30.043949	0.320814	6.000000	1.000000	5.000000
527	33	The daughter kisses the king.wav	1	declarative	1	2	141.000000	2016.000000	1875.000000	2.790035	160.184413	93.000000	21.000000	0.337616	1.089875	21.410407	1.925312	14.000000	2.000000	12.000000
527	35	The bird watches the alligator.wav	1	declarative	1	2	266.000000	1797.000000	1531.000000	2.594921	125.504880	83.000000	21.000000	0.159988	0.953174	15.305859	1.702034	8.000000	2.000000	6.000000
527	37	The bus hits the motorcycle.wav	1	declarative	2	1	47.000000	1625.000000	1578.000000	2.563753	124.580283	83.000000	20.000000	0.521148	0.991718	11.675080	1.779631	7.000000	2.000000	5.000000
527	50	The seagull chases the tourist.wav	1	declarative	2	1	78.000000	1562.000000	1484.000000	2.260422	122.554003	85.000000	26.000000	0.318847	0.910536	14.620874	1.341816	11.000000	3.000000	8.000000
527	51	The princess slaps the prince.wav	1	declarative	2	1	172.000000	1656.000000	1484.000000	2.148767	71.900225	11.000000	22.000000	0.242504	0.812669	12.231501	0.030334	8.000000	1.000000	7.000000
527	55	The robber shoots the policeman.wav	1	declarative	2	1	125.000000	1516.000000	1391.000000	2.322285	111.985756	11.000000	25.000000	0.448021	1.096935	3.605652	0.127136	9.000000	2.000000	7.000000
527	60	The zebra kicks the horse.wav	1	declarative	1	2	93.000000	1843.000000	1750.000000	2.261949	105.615855	65.000000	22.000000	0.123957	0.843898	16.319160	1.378827	12.000000	3.000000	8.000000
527	63	The grandmother finds the grandson.wav	1	declarative	2	1	78.000000	3250.000000	3172.000000	2.409527	158.457177	6.000000	19.000000	0.497108	1.052650	2.165401	0.095163	12.000000	1.000000	9.000000
527	80	The baby touches the hamster.wav	1	declarative	1	2	79.000000	1750.000000	1671.000000	2.394701	131.820805	96.000000	17.000000	0.203732	0.873602	-1.741565	1.735597	15.000000	2.000000	11.000000
527	82	The cloud hides the sun.wav	1	declarative	1	2	125.000000	1969.000000	1844.000000	3.787276	213.538638	92.000000	24.000000	0.382815	0.923386	6.354988	2.501550	3.000000	1.000000	2.000000
593	15	The robber shoots the policeman.wav	1	declarative	2	1	31.000000	1500.000000	1469.000000	1.523080	150.758235	96.000000	4.000000	0.126145	0.540779	19.490053	0.769289	8.000000	1.000000	7.000000
593	18	The baby touches the hamster.wav	1	declarative	1	2	125.000000	2313.000000	2188.000000	1.825914	171.087975	87.000000	19.000000	0.355406	0.806228	19.964327	0.821410	9.000000	0.000000	9.000000
593	25	The grandmother finds the grandson.wav	1	declarative	2	1	140.000000	2078.000000	1938.000000	1.476426	211.370833	96.000000	3.000000	0.376172	0.624150	-7.751517	0.419571	5.000000	2.000000	3.000000
593	31	The daughter kisses the king.wav	1	declarative	1	2	188.000000	1172.000000	984.000000	1.683034	175.816010	95.000000	14.000000	0.234522	0.595392	-24.144660	0.751261	5.000000	4.000000	1.000000
593	33	The cat attacks the fireman.wav	1	declarative	1	2	94.000000	1844.000000	1750.000000	1.408857	167.608872	96.000000	2.000000	0.222716	0.692343	-3.143016	0.570812	0.000000	0.000000	0.000000
593	46	The princess slaps the prince.wav	1	declarative	2	1	32.000000	1969.000000	1937.000000	1.939282	243.120416	96.000000	17.000000	0.563320	0.794237	-33.179371	0.723680	15.000000	1.000000	14.000000
593	50	The cloud hides the sun.wav	1	declarative	1	2	47.000000	2563.000000	2516.000000	1.979749	151.591513	96.000000	14.000000	0.230512	0.586833	-41.074260	1.221791	14.000000	5.000000	9.000000
593	53	The bus hits the motorcycle.wav	1	declarative	2	1	94.000000	1407.000000	1313.000000	1.502159	151.847523	96.000000	12.000000	0.275750	0.616349	17.738298	0.742921	13.000000	2.000000	11.000000
593	56	The seagull chases the tourist.wav	1	declarative	2	1	31.000000	1531.000000	1500.000000	1.886067	168.440121	94.000000	23.000000	0.347872	0.568495	22.632008	0.758374	12.000000	3.000000	9.000000
593	58	The kid tickles the mom.wav	1	declarative	1	2	31.000000	1312.000000	1281.000000	1.691565	133.189372	93.000000	21.000000	0.175148	0.592341	-27.694392	0.748380	10.000000	4.000000	6.000000
593	59	The bird watches the alligator.wav	1	declarative	1	2	156.000000	1859.000000	1703.000000	1.506779	150.678193	96.000000	10.000000	0.242614	0.658182	-6.742587	0.753389	11.000000	2.000000	9.000000
593	61	The fish eats the fisherman.wav	1	declarative	2	1	31.000000	1625.000000	1594.000000	2.219438	268.518480	95.000000	16.000000	0.576462	0.570268	-8.489760	0.812917	10.000000	4.000000	6.000000
593	63	The nurse hugs the surgeon.wav	1	declarative	2	1	78.000000	1672.000000	1594.000000	1.776225	243.136036	95.000000	10.000000	0.434597	0.506950	9.593504	0.474874	4.000000	0.000000	4.000000
593	71	The tiger lifts the bear.wav	1	declarative	1	2	79.000000	1719.000000	1640.000000	1.690470	210.144371	96.000000	18.000000	0.380340	0.787604	21.691510	0.639748	10.000000	8.000000	2.000000
593	85	The zebra kicks the horse.wav	1	declarative	1	2	31.000000	3562.000000	3531.000000	2.668660	151.100606	32.000000	18.000000	0.307538	1.129392	0.240132	0.515491	11.000000	1.000000	10.000000
611	25	The seagull chases the tourist.wav	1	declarative	2	1	32.000000	2313.000000	2281.000000	1.715892	140.303359	93.000000	7.000000	0.254574	0.708247	7.705101	0.893580	5.000000	1.000000	3.000000
611	39	The nurse hugs the surgeon.wav	1	declarative	2	1	47.000000	2172.000000	2125.000000	1.635108	134.013511	93.000000	6.000000	0.259915	0.728462	2.114576	0.857562	4.000000	0.000000	4.000000
611	40	The fish eats the fisherman.wav	1	declarative	2	1	78.000000	1656.000000	1578.000000	1.923437	117.281781	88.000000	11.000000	0.351741	0.772547	-21.351403	1.050069	7.000000	1.000000	6.000000
611	43	The zebra kicks the horse.wav	1	declarative	1	2	93.000000	2140.000000	2047.000000	1.716896	140.470334	93.000000	10.000000	0.362348	0.726732	-4.156242	0.743593	7.000000	1.000000	5.000000
611	49	The bus hits the motorcycle.wav	1	declarative	2	1	78.000000	1860.000000	1782.000000	1.593634	169.608199	94.000000	10.000000	0.282620	0.608747	13.430370	0.581995	9.000000	1.000000	7.000000
611	53	The grandmother finds the grandson.wav	1	declarative	2	1	93.000000	2328.000000	2235.000000	1.652090	210.171698	96.000000	6.000000	0.329300	0.717072	1.158480	0.601231	4.000000	1.000000	2.000000
611	59	The robber shoots the policeman.wav	1	declarative	2	1	62.000000	2375.000000	2313.000000	2.883034	198.293972	94.000000	9.000000	0.375671	0.929769	1.668337	1.641188	14.000000	0.000000	12.000000
611	61	The cloud hides the sun.wav	1	declarative	1	2	47.000000	2047.000000	2000.000000	2.355441	155.974846	5.000000	8.000000	0.489318	1.187019	6.596738	0.075135	5.000000	0.000000	5.000000
611	64	The princess slaps the prince.wav	1	declarative	2	1	31.000000	1734.000000	1703.000000	1.699656	111.595705	9.000000	14.000000	0.147201	0.776120	16.512356	0.225759	13.000000	3.000000	9.000000
611	67	The baby touches the hamster.wav	1	declarative	1	2	62.000000	2469.000000	2407.000000	2.021088	181.032047	4.000000	10.000000	0.286344	0.905417	-4.346821	0.066327	5.000000	0.000000	5.000000
611	70	The bird watches the alligator.wav	1	declarative	1	2	109.000000	2234.000000	2125.000000	2.336216	205.953376	6.000000	16.000000	0.355723	1.067527	4.152643	0.045122	11.000000	0.000000	10.000000
611	72	The cat attacks the fireman.wav	1	declarative	1	2	32.000000	2375.000000	2343.000000	1.853235	157.451672	96.000000	7.000000	0.397344	1.008486	12.386987	1.065977	6.000000	2.000000	4.000000
611	75	The kid tickles the mom.wav	1	declarative	1	2	47.000000	2531.000000	2484.000000	1.860570	154.615363	90.000000	4.000000	0.368322	0.913827	9.709210	0.917113	7.000000	1.000000	4.000000
611	81	The tiger lifts the bear.wav	1	declarative	1	2	47.000000	1594.000000	1547.000000	2.192596	149.823664	96.000000	15.000000	0.488245	1.025466	14.963292	1.443478	11.000000	2.000000	9.000000
643	12	The seagull chases the tourist.wav	1	declarative	2	1	188.000000	1750.000000	1562.000000	2.539985	234.632619	31.000000	25.000000	0.436127	1.155625	-8.586769	0.101396	11.000000	5.000000	5.000000
643	20	The cloud hides the sun.wav	1	declarative	1	2	2016.000000	2156.000000	140.000000	1.837767	340.174301	96.000000	0.000000	0.318161	0.808411	-5.200048	0.136896	3.000000	2.000000	0.000000
643	23	The cat attacks the fireman.wav	1	declarative	1	2	219.000000	1391.000000	1172.000000	3.559808	130.572091	93.000000	32.000000	0.276924	1.129821	30.062600	2.642698	8.000000	2.000000	6.000000
643	27	The zebra kicks the horse.wav	1	declarative	1	2	62.000000	1328.000000	1266.000000	3.899369	116.885773	17.000000	40.000000	0.234237	1.474177	50.861408	0.106832	13.000000	4.000000	8.000000
643	34	The baby touches the hamster.wav	1	declarative	1	2	46.000000	1796.000000	1750.000000	3.015341	145.974407	14.000000	18.000000	0.201997	1.146665	40.122646	0.138520	10.000000	4.000000	6.000000
643	35	The princess slaps the prince.wav	1	declarative	2	1	31.000000	1078.000000	1047.000000	2.994704	107.909481	13.000000	34.000000	0.418307	0.816393	18.420193	0.118437	8.000000	3.000000	5.000000
643	36	The bird watches the alligator.wav	1	declarative	1	2	47.000000	2110.000000	2063.000000	3.627594	147.392363	13.000000	28.000000	0.245227	1.413517	77.456834	0.285847	6.000000	2.000000	4.000000
643	37	The kid tickles the mom.wav	1	declarative	1	2	63.000000	1750.000000	1687.000000	2.506604	134.035531	18.000000	23.000000	0.144254	0.785301	12.019169	0.022529	6.000000	3.000000	2.000000
643	38	The nurse hugs the surgeon.wav	1	declarative	2	1	235.000000	1282.000000	1047.000000	2.318501	135.290484	47.000000	23.000000	0.173677	0.615723	53.472790	0.770730	10.000000	3.000000	7.000000
643	45	The robber shoots the policeman.wav	1	declarative	2	1	171.000000	2093.000000	1922.000000	2.828973	148.014913	9.000000	17.000000	0.226401	0.792769	-18.891129	0.013135	13.000000	2.000000	11.000000
643	46	The tiger lifts the bear.wav	1	declarative	1	2	235.000000	1704.000000	1469.000000	2.409179	115.393411	78.000000	16.000000	0.186615	0.547102	-13.397020	0.925914	9.000000	4.000000	4.000000
643	62	The grandmother finds the grandson.wav	1	declarative	2	1	78.000000	2594.000000	2516.000000	3.346265	207.504548	4.000000	19.000000	0.696043	0.891270	-5.896901	0.030904	7.000000	0.000000	7.000000
643	68	The daughter kisses the king.wav	1	declarative	1	2	296.000000	1921.000000	1625.000000	2.322274	113.252512	19.000000	15.000000	0.163199	1.056294	36.331535	0.132377	3.000000	1.000000	2.000000
643	71	The fish eats the fisherman.wav	1	declarative	2	1	172.000000	1437.000000	1265.000000	1.815400	67.840372	80.000000	26.000000	0.262472	0.805238	-7.501619	0.952274	9.000000	5.000000	3.000000
643	76	The bus hits the motorcycle.wav	1	declarative	2	1	63.000000	1641.000000	1578.000000	2.264235	114.339929	55.000000	21.000000	0.285772	0.867619	-71.313045	0.516308	16.000000	7.000000	8.000000
678	11	The tiger lifts the bear.wav	1	declarative	1	2	78.000000	3000.000000	2922.000000	1.611262	106.436720	95.000000	32.000000	0.072652	0.319497	-47.201165	1.005840	30.000000	13.000000	17.000000
678	12	The bus hits the motorcycle.wav	1	declarative	2	1	187.000000	3640.000000	3453.000000	1.648478	100.309661	74.000000	20.000000	0.173970	0.527130	-1.808154	0.771291	19.000000	9.000000	10.000000
678	23	The cat attacks the fireman.wav	1	declarative	1	2	47.000000	2375.000000	2328.000000	1.587541	137.741384	90.000000	10.000000	0.349764	0.524574	-16.987963	0.536038	14.000000	13.000000	1.000000
678	27	The robber shoots the policeman.wav	1	declarative	2	1	79.000000	4563.000000	4484.000000	6.524781	154.818893	92.000000	31.000000	0.309154	0.441996	16.376602	5.637556	21.000000	1.000000	19.000000
678	29	The cloud hides the sun.wav	1	declarative	1	2	187.000000	3031.000000	2844.000000	2.162859	146.593968	93.000000	31.000000	0.266782	0.617983	4.628264	1.099162	16.000000	1.000000	15.000000
678	33	The nurse hugs the surgeon.wav	1	declarative	2	1	78.000000	4141.000000	4063.000000	5.473636	115.067654	81.000000	33.000000	0.364862	0.566270	10.663072	4.430770	19.000000	0.000000	18.000000
678	36	The baby touches the hamster.wav	1	declarative	1	2	78.000000	4218.000000	4140.000000	4.585216	84.557005	73.000000	36.000000	0.031911	0.647829	-4.544049	3.369179	20.000000	1.000000	19.000000
678	44	The kid tickles the mom.wav	1	declarative	1	2	62.000000	2937.000000	2875.000000	4.531096	86.053779	7.000000	22.000000	0.166613	0.734435	21.610560	0.180727	12.000000	1.000000	11.000000
678	48	The bird watches the alligator.wav	1	declarative	1	2	47.000000	3015.000000	2968.000000	4.456130	74.138037	77.000000	36.000000	0.108447	0.754615	-1.693469	3.631151	13.000000	1.000000	11.000000
678	49	The daughter kisses the king.wav	1	declarative	1	2	32.000000	4438.000000	4406.000000	5.400206	132.765046	16.000000	30.000000	0.011097	0.765809	-1.829129	0.972687	20.000000	0.000000	19.000000
678	52	The princess slaps the prince.wav	1	declarative	2	1	94.000000	3312.000000	3218.000000	6.358374	132.677316	90.000000	25.000000	0.358891	0.517528	-11.838770	5.360806	19.000000	3.000000	15.000000
678	69	The zebra kicks the horse.wav	1	declarative	1	2	62.000000	5594.000000	5532.000000	3.991882	175.397157	59.000000	31.000000	0.150096	0.681778	0.840929	2.067876	20.000000	3.000000	17.000000
678	72	The grandmother finds the grandson.wav	1	declarative	2	1	125.000000	10938.000000	10813.000000	10.227392	141.909931	78.000000	39.000000	0.587901	0.505046	-1.328464	7.844173	43.000000	1.000000	42.000000
678	78	The fish eats the fisherman.wav	1	declarative	2	1	157.000000	7297.000000	7140.000000	3.354855	81.111955	62.000000	25.000000	0.183969	0.473619	-1.896197	2.050730	16.000000	1.000000	15.000000
678	83	The seagull chases the tourist.wav	1	declarative	2	1	172.000000	3078.000000	2906.000000	2.942154	70.562345	80.000000	35.000000	0.267531	0.518857	9.041225	1.938746	16.000000	1.000000	13.000000
697	19	The seagull chases the tourist.wav	1	declarative	2	1	329.000000	2313.000000	1984.000000	1.761301	67.938438	93.000000	18.000000	0.187297	0.557700	-4.812696	1.323061	11.000000	1.000000	9.000000
697	25	The grandmother finds the grandson.wav	1	declarative	2	1	359.000000	3125.000000	2766.000000	1.573085	103.883255	89.000000	27.000000	0.247365	0.665681	2.670829	0.892440	16.000000	1.000000	14.000000
697	26	The daughter kisses the king.wav	1	declarative	1	2	297.000000	2563.000000	2266.000000	2.555282	164.080468	88.000000	25.000000	0.353752	1.074002	0.505786	1.386251	15.000000	1.000000	14.000000
697	33	The zebra kicks the horse.wav	1	declarative	1	2	594.000000	2000.000000	1406.000000	1.543196	138.093608	90.000000	23.000000	0.306611	0.627413	-2.198267	0.513851	15.000000	14.000000	1.000000
697	34	The cat attacks the fireman.wav	1	declarative	1	2	422.000000	2094.000000	1672.000000	2.175166	161.635996	96.000000	32.000000	0.423858	1.205598	35.557405	1.366986	16.000000	1.000000	15.000000
697	37	The cloud hides the sun.wav	1	declarative	1	2	344.000000	1828.000000	1484.000000	1.763388	116.825143	92.000000	28.000000	0.197243	0.616705	-39.757859	0.884108	17.000000	3.000000	14.000000
697	39	The baby touches the hamster.wav	1	declarative	1	2	141.000000	1797.000000	1656.000000	1.630712	86.284961	86.000000	29.000000	0.232297	0.697557	-11.060161	0.862623	14.000000	4.000000	9.000000
697	44	The nurse hugs the surgeon.wav	1	declarative	2	1	203.000000	2188.000000	1985.000000	1.815040	126.507118	96.000000	32.000000	0.188337	0.662874	32.404543	1.182505	11.000000	2.000000	9.000000
697	53	The fish eats the fisherman.wav	1	declarative	2	1	93.000000	1640.000000	1547.000000	1.603038	76.227341	95.000000	29.000000	0.313166	0.628029	-7.139640	1.169944	10.000000	8.000000	1.000000
697	56	The princess slaps the prince.wav	1	declarative	2	1	47.000000	1641.000000	1594.000000	1.704350	79.615168	88.000000	25.000000	0.330112	0.713841	-14.601708	0.821988	20.000000	16.000000	4.000000
697	68	The kid tickles the mom.wav	1	declarative	1	2	172.000000	1484.000000	1312.000000	1.612620	62.447383	89.000000	31.000000	0.266698	0.766438	8.170085	1.023184	8.000000	7.000000	1.000000
697	70	The bus hits the motorcycle.wav	1	declarative	2	1	141.000000	2312.000000	2171.000000	1.786549	166.237249	96.000000	23.000000	0.384315	0.836901	-8.860018	0.955363	18.000000	3.000000	15.000000
697	73	The robber shoots the policeman.wav	1	declarative	2	1	31.000000	2266.000000	2235.000000	1.962348	67.261373	16.000000	28.000000	0.415837	0.933293	-28.537642	0.046572	11.000000	3.000000	8.000000
697	84	The bird watches the alligator.wav	1	declarative	1	2	406.000000	2156.000000	1750.000000	1.581089	117.380407	72.000000	19.000000	0.155487	0.609321	-2.720053	0.525025	15.000000	0.000000	14.000000
697	85	The tiger lifts the bear.wav	1	declarative	1	2	312.000000	1968.000000	1656.000000	1.543378	96.883924	96.000000	33.000000	0.247360	0.633766	-17.168996	1.058958	11.000000	3.000000	8.000000
713	12	The grandmother finds the grandson.wav	1	declarative	2	1	31.000000	1485.000000	1454.000000	2.432205	142.413949	3.000000	22.000000	0.330500	1.029434	-8.453163	0.112033	6.000000	1.000000	4.000000
713	19	The robber shoots the policeman.wav	1	declarative	2	1	31.000000	1625.000000	1594.000000	2.929190	184.858469	5.000000	15.000000	0.445246	0.938233	-2.252176	0.329431	12.000000	0.000000	12.000000
713	20	The fish eats the fisherman.wav	1	declarative	2	1	31.000000	1000.000000	969.000000	2.061894	73.531615	90.000000	38.000000	0.358531	1.026537	-17.467472	1.424206	9.000000	2.000000	6.000000
713	21	The zebra kicks the horse.wav	1	declarative	1	2	31.000000	1453.000000	1422.000000	2.025074	103.481864	7.000000	24.000000	0.215562	0.951889	2.233301	0.264033	18.000000	3.000000	15.000000
713	22	The seagull chases the tourist.wav	1	declarative	2	1	32.000000	188.000000	156.000000	1.531199	43.051372	77.000000	15.000000	0.163982	0.587961	15.387441	0.853661	6.000000	6.000000	0.000000
713	32	The cat attacks the fireman.wav	1	declarative	1	2	47.000000	1422.000000	1375.000000	2.839572	167.541856	96.000000	26.000000	0.728255	1.230418	5.502562	2.001863	9.000000	2.000000	7.000000
713	50	The baby touches the hamster.wav	1	declarative	1	2	32.000000	2360.000000	2328.000000	1.661215	119.592757	96.000000	12.000000	0.180236	0.791391	-1.888451	1.063251	8.000000	0.000000	8.000000
713	60	The cloud hides the sun.wav	1	declarative	1	2	31.000000	1609.000000	1578.000000	1.961928	154.885236	8.000000	4.000000	0.351680	1.023969	6.760065	0.143401	4.000000	1.000000	2.000000
713	73	The bus hits the motorcycle.wav	1	declarative	2	1	94.000000	3469.000000	3375.000000	1.864062	204.100272	96.000000	5.000000	0.498862	0.840927	-5.980600	0.843560	7.000000	1.000000	5.000000
713	82	The tiger lifts the bear.wav	1	declarative	1	2	31.000000	2234.000000	2203.000000	1.757093	133.199833	6.000000	7.000000	0.211649	0.939694	4.687931	0.272208	6.000000	3.000000	3.000000
713	83	The kid tickles the mom.wav	1	declarative	1	2	47.000000	1969.000000	1922.000000	1.794682	117.632248	95.000000	18.000000	0.330588	0.918511	-5.333730	1.136603	8.000000	3.000000	5.000000
713	84	The nurse hugs the surgeon.wav	1	declarative	2	1	31.000000	2343.000000	2312.000000	1.740418	96.899199	96.000000	16.000000	0.303768	0.865910	7.736890	1.255922	8.000000	1.000000	7.000000
713	85	The bird watches the alligator.wav	1	declarative	1	2	63.000000	2141.000000	2078.000000	1.743877	75.917805	8.000000	21.000000	0.230824	0.901078	1.314116	0.234892	7.000000	2.000000	5.000000
732	25	The cloud hides the sun.wav	1	declarative	1	2	2500.000000	2797.000000	297.000000	1.588560	261.272227	91.000000	1.000000	0.383748	0.517580	-31.787253	0.122571	4.000000	1.000000	2.000000
732	26	The seagull chases the tourist.wav	1	declarative	2	1	1141.000000	3234.000000	2093.000000	1.671805	316.478323	96.000000	4.000000	0.470971	0.417489	43.897855	0.089413	5.000000	4.000000	1.000000
732	30	The bus hits the motorcycle.wav	1	declarative	2	1	203.000000	2031.000000	1828.000000	1.666176	300.123323	96.000000	6.000000	0.288078	0.610057	12.646762	0.165559	9.000000	9.000000	0.000000
732	33	The bird watches the alligator.wav	1	declarative	1	2	2282.000000	2407.000000	125.000000	1.607067	314.531719	96.000000	-1.000000	0.319626	0.640479	-10.166071	0.034409	3.000000	2.000000	0.000000
732	37	The zebra kicks the horse.wav	1	declarative	1	2	94.000000	1687.000000	1593.000000	1.702312	95.054770	13.000000	21.000000	0.080393	0.775581	-6.231424	0.240697	11.000000	1.000000	10.000000
732	38	The princess slaps the prince.wav	1	declarative	2	1	31.000000	1578.000000	1547.000000	2.171039	128.844176	5.000000	21.000000	0.340733	1.120139	-6.698681	0.207873	17.000000	1.000000	14.000000
732	40	The fish eats the fisherman.wav	1	declarative	2	1	31.000000	2031.000000	2000.000000	2.351863	183.142778	5.000000	8.000000	0.443357	1.163097	-21.029813	0.468591	6.000000	0.000000	6.000000
732	48	The nurse hugs the surgeon.wav	1	declarative	2	1	31.000000	1906.000000	1875.000000	2.047090	152.743790	3.000000	11.000000	0.335255	0.997406	0.402917	0.104510	11.000000	1.000000	8.000000
732	69	The daughter kisses the king.wav	1	declarative	1	2	110.000000	2172.000000	2062.000000	2.005444	133.749344	10.000000	12.000000	0.289515	0.958411	0.976359	0.186196	5.000000	0.000000	4.000000
732	70	The tiger lifts the bear.wav	1	declarative	1	2	109.000000	1828.000000	1719.000000	2.165801	132.211892	96.000000	7.000000	0.327351	1.158779	20.478433	1.504742	4.000000	1.000000	2.000000
732	71	The kid tickles the mom.wav	1	declarative	1	2	32.000000	2000.000000	1968.000000	2.199634	194.946515	3.000000	13.000000	0.185383	0.864050	-13.805148	0.221917	10.000000	0.000000	9.000000
758	12	The daughter kisses the king.wav	1	declarative	1	2	31.000000	906.000000	875.000000	1.762067	61.435106	11.000000	46.000000	0.089667	0.859884	12.502428	0.199529	9.000000	3.000000	6.000000
758	24	The kid tickles the mom.wav	1	declarative	1	2	78.000000	1563.000000	1485.000000	1.511593	53.169135	79.000000	45.000000	0.147033	0.589985	-9.617868	0.894764	18.000000	6.000000	12.000000
758	30	The seagull chases the tourist.wav	1	declarative	2	1	562.000000	1641.000000	1079.000000	1.672495	81.324326	84.000000	27.000000	0.283566	0.716111	0.000000	0.798105	10.000000	4.000000	5.000000
758	31	The princess slaps the prince.wav	1	declarative	2	1	250.000000	1812.000000	1562.000000	1.525905	91.191020	78.000000	30.000000	0.231220	0.590491	5.590437	0.454649	9.000000	7.000000	2.000000
758	34	The tiger lifts the bear.wav	1	declarative	1	2	328.000000	1703.000000	1375.000000	1.570684	52.530215	80.000000	36.000000	0.249690	0.627763	2.248966	0.631334	14.000000	8.000000	5.000000
758	42	The bus hits the motorcycle.wav	1	declarative	2	1	281.000000	1750.000000	1469.000000	1.636895	55.646168	80.000000	42.000000	0.220162	0.744805	0.444360	1.029293	13.000000	4.000000	9.000000
758	43	The robber shoots the policeman.wav	1	declarative	2	1	125.000000	1344.000000	1219.000000	1.565001	57.340826	91.000000	52.000000	0.255786	0.627222	-2.126140	1.057458	17.000000	8.000000	9.000000
758	44	The nurse hugs the surgeon.wav	1	declarative	2	1	453.000000	1328.000000	875.000000	1.497405	117.455006	96.000000	30.000000	0.321066	0.627711	-0.282243	0.910130	14.000000	5.000000	9.000000
758	45	The fish eats the fisherman.wav	1	declarative	2	1	156.000000	1141.000000	985.000000	1.766519	78.741881	78.000000	46.000000	0.321596	0.666711	-10.157947	0.750958	11.000000	9.000000	2.000000
758	65	The cloud hides the sun.wav	1	declarative	1	2	78.000000	1640.000000	1562.000000	1.969493	46.977448	75.000000	46.000000	0.270339	1.048272	2.061441	1.193181	8.000000	2.000000	5.000000
758	75	The bird watches the alligator.wav	1	declarative	1	2	125.000000	1953.000000	1828.000000	1.762731	59.746768	72.000000	19.000000	0.273985	0.847470	18.324257	0.411519	6.000000	6.000000	0.000000
758	82	The grandmother finds the grandson.wav	1	declarative	2	1	484.000000	1984.000000	1500.000000	1.704672	111.948085	96.000000	36.000000	0.316498	0.856661	-1.320072	1.144931	21.000000	5.000000	14.000000
758	85	The cat attacks the fireman.wav	1	declarative	1	2	94.000000	2016.000000	1922.000000	2.977182	227.398240	96.000000	39.000000	0.349441	1.033716	-8.541318	1.840191	18.000000	5.000000	11.000000
896	17	The bird watches the alligator.wav	1	declarative	1	2	31.000000	2187.000000	2156.000000	3.137674	186.340121	95.000000	30.000000	0.254983	0.890182	-28.643989	2.125274	24.000000	4.000000	20.000000
896	18	The fish eats the fisherman.wav	1	declarative	2	1	141.000000	1438.000000	1297.000000	1.739015	89.397701	94.000000	32.000000	0.329493	0.850324	-5.030849	1.177723	15.000000	5.000000	10.000000
896	34	The kid tickles the mom.wav	1	declarative	1	2	31.000000	1593.000000	1562.000000	2.420307	156.725138	89.000000	19.000000	0.426837	1.254314	33.675108	1.538181	5.000000	0.000000	3.000000
896	46	The nurse hugs the surgeon.wav	1	declarative	2	1	94.000000	1547.000000	1453.000000	2.008390	144.991055	93.000000	14.000000	0.420443	0.949021	8.621574	1.116533	9.000000	2.000000	7.000000
896	49	The daughter kisses the king.wav	1	declarative	1	2	47.000000	1579.000000	1532.000000	1.681309	145.088123	96.000000	41.000000	0.333206	0.834373	3.070502	0.955869	12.000000	4.000000	8.000000
896	51	The seagull chases the tourist.wav	1	declarative	2	1	47.000000	1562.000000	1515.000000	1.659724	111.330639	77.000000	26.000000	0.240197	0.813504	-4.500728	0.799355	6.000000	1.000000	5.000000
896	52	The princess slaps the prince.wav	1	declarative	2	1	32.000000	1125.000000	1093.000000	1.680181	96.804836	86.000000	49.000000	0.260598	0.711565	-0.880094	0.595003	13.000000	13.000000	0.000000
896	56	The cat attacks the fireman.wav	1	declarative	1	2	140.000000	1656.000000	1516.000000	1.559947	212.736268	78.000000	13.000000	0.226631	0.625592	-14.365689	0.244269	7.000000	3.000000	4.000000
896	59	The robber shoots the policeman.wav	1	declarative	2	1	125.000000	2719.000000	2594.000000	1.592096	209.893053	90.000000	30.000000	0.363166	0.505155	23.975598	0.142638	8.000000	5.000000	3.000000
896	67	The zebra kicks the horse.wav	1	declarative	1	2	78.000000	1438.000000	1360.000000	1.745162	210.781888	94.000000	15.000000	0.315184	0.715096	1.594830	0.514025	7.000000	5.000000	2.000000
896	69	The baby touches the hamster.wav	1	declarative	1	2	31.000000	1703.000000	1672.000000	1.616120	144.568972	96.000000	34.000000	0.303648	0.757957	-2.960001	0.893276	16.000000	5.000000	11.000000
896	75	The bus hits the motorcycle.wav	1	declarative	2	1	78.000000	1578.000000	1500.000000	1.717544	134.485817	95.000000	18.000000	0.342220	0.714763	22.899867	1.002401	6.000000	5.000000	1.000000
896	77	The tiger lifts the bear.wav	1	declarative	1	2	47.000000	1953.000000	1906.000000	1.558217	192.997419	87.000000	6.000000	0.291752	0.408213	-32.725220	0.114388	4.000000	1.000000	2.000000
896	83	The cloud hides the sun.wav	1	declarative	1	2	31.000000	1672.000000	1641.000000	1.692763	129.884184	94.000000	21.000000	0.360287	0.730574	11.924852	0.858553	13.000000	5.000000	8.000000
91011	15	The robber shoots the policeman.wav	1	declarative	2	1	1125.000000	1515.000000	390.000000	1.535272	135.804717	94.000000	12.000000	0.330090	0.440647	36.763348	0.692836	5.000000	2.000000	3.000000
91011	28	The baby touches the hamster.wav	1	declarative	1	2	156.000000	1766.000000	1610.000000	1.585644	102.515497	96.000000	26.000000	0.232528	0.601391	-18.030069	1.073067	20.000000	3.000000	16.000000
91011	29	The cloud hides the sun.wav	1	declarative	1	2	187.000000	1468.000000	1281.000000	2.234294	160.813478	94.000000	22.000000	0.394463	1.045502	-0.164171	1.313974	9.000000	6.000000	3.000000
91011	33	The cat attacks the fireman.wav	1	declarative	1	2	922.000000	1282.000000	360.000000	1.542581	103.709939	85.000000	13.000000	0.302753	0.435354	-40.439463	0.291505	6.000000	4.000000	2.000000
91011	46	The princess slaps the prince.wav	1	declarative	2	1	641.000000	1906.000000	1265.000000	1.787052	164.012963	91.000000	14.000000	0.405624	0.567586	-4.054414	0.668430	4.000000	1.000000	2.000000
91011	56	The seagull chases the tourist.wav	1	declarative	2	1	125.000000	1500.000000	1375.000000	2.474784	115.586137	91.000000	40.000000	0.483170	1.057779	-3.445730	1.638484	11.000000	3.000000	8.000000
91011	59	The bird watches the alligator.wav	1	declarative	1	2	125.000000	2172.000000	2047.000000	1.974105	123.756082	94.000000	26.000000	0.351561	0.892277	19.957111	1.267308	17.000000	2.000000	15.000000
91011	61	The fish eats the fisherman.wav	1	declarative	2	1	234.000000	1578.000000	1344.000000	1.500173	61.074744	94.000000	16.000000	0.130842	0.429411	41.978141	1.102423	22.000000	11.000000	10.000000
91011	68	The nurse hugs the surgeon.wav	1	declarative	2	1	62.000000	2218.000000	2156.000000	1.997416	165.290499	94.000000	19.000000	0.451766	0.748899	-14.766552	0.992914	12.000000	6.000000	6.000000
91011	71	The tiger lifts the bear.wav	1	declarative	1	2	687.000000	1953.000000	1266.000000	2.687844	138.911948	91.000000	15.000000	0.214846	0.787313	-8.247086	1.826673	4.000000	2.000000	2.000000
91011	78	The kid tickles the mom.wav	1	declarative	1	2	125.000000	1188.000000	1063.000000	2.047447	97.918463	91.000000	42.000000	0.496179	1.093702	34.211986	1.135763	18.000000	7.000000	11.000000
91011	85	The zebra kicks the horse.wav	1	declarative	1	2	203.000000	1969.000000	1766.000000	1.979629	98.677107	81.000000	26.000000	0.259135	0.300917	-85.935281	0.884655	11.000000	10.000000	1.000000
2314	21	The dog was bitten by the snake.wav	2	passive	1	2	344.000000	2563.000000	2219.000000	2.235778	122.176108	69.000000	25.000000	0.174405	0.872282	-12.270653	1.370085	10.000000	2.000000	8.000000
2314	24	The puppy was licked by the kitten.wav	2	passive	1	2	250.000000	5453.000000	5203.000000	1.548484	92.651278	96.000000	21.000000	0.062844	0.485709	-24.849447	1.085228	15.000000	0.000000	15.000000
2314	30	The chicken was scared by the crow.wav	2	passive	2	1	141.000000	2594.000000	2453.000000	1.561037	93.343867	9.000000	17.000000	0.106052	0.632440	16.280494	0.139407	10.000000	1.000000	8.000000
2314	43	The panda is colored by the monkey.wav	2	passive	2	1	47.000000	6234.000000	6187.000000	2.237849	197.010309	89.000000	12.000000	0.609245	0.755866	-19.438659	0.803754	10.000000	0.000000	10.000000
2314	48	The hero is killed by the robber.wav	2	passive	2	1	31.000000	2719.000000	2688.000000	2.336921	134.047179	79.000000	12.000000	0.550676	0.909992	-5.978776	1.025515	5.000000	1.000000	4.000000
2314	56	The turtle was carried by the sheep.wav	2	passive	1	2	31.000000	4000.000000	3969.000000	1.972637	182.957563	96.000000	13.000000	0.329204	0.659327	-28.506184	1.057849	12.000000	0.000000	11.000000
2314	59	The elephant was washed by the worker.wav	2	passive	2	1	31.000000	2656.000000	2625.000000	1.699271	81.079712	83.000000	16.000000	0.230128	0.792560	0.689958	1.067926	6.000000	1.000000	5.000000
2314	62	The husband was fed by his wife.wav	2	passive	1	2	78.000000	2781.000000	2703.000000	1.629582	58.044307	6.000000	21.000000	0.048228	0.519086	-22.964616	0.101528	2.000000	0.000000	2.000000
2314	72	The duck was led by the penguin.wav	2	passive	1	2	78.000000	5610.000000	5532.000000	3.307449	133.434573	96.000000	17.000000	0.311455	0.682569	-29.611416	2.640276	6.000000	0.000000	5.000000
2314	76	The skier was crushed by the snowboard.wav	2	passive	1	2	62.000000	6766.000000	6704.000000	1.819771	188.384961	96.000000	9.000000	0.301238	0.675543	-23.041775	0.877846	2.000000	0.000000	2.000000
2314	80	The pig was followed by the hen.wav	2	passive	2	1	156.000000	3922.000000	3766.000000	2.315994	282.249156	96.000000	7.000000	0.821474	1.003508	-28.598913	0.904748	7.000000	2.000000	5.000000
2314	82	The chef was suprised by the mailman.wav	2	passive	1	2	31.000000	5344.000000	5313.000000	1.742792	112.896741	96.000000	12.000000	0.062609	0.488286	-26.932663	1.178308	5.000000	0.000000	5.000000
2314	84	The aunt is assisted by her niece.wav	2	passive	2	1	94.000000	8063.000000	7969.000000	2.872102	217.845211	93.000000	13.000000	0.482870	0.878753	-45.882638	1.507323	10.000000	0.000000	10.000000
2314	85	The boxer is punched by the kangeroo.wav	2	passive	2	1	562.000000	4687.000000	4125.000000	2.021419	143.565250	92.000000	7.000000	0.575444	0.933530	-39.283593	1.078708	7.000000	1.000000	5.000000
377	13	The boy is pushed by his sister.wav	2	passive	1	2	31.000000	2468.000000	2437.000000	2.805814	87.799493	2.000000	28.000000	0.429089	1.012747	-0.693060	0.031300	13.000000	0.000000	11.000000
377	19	The puppy was licked by the kitten.wav	2	passive	1	2	31.000000	2437.000000	2406.000000	2.033381	52.762058	86.000000	22.000000	0.325490	0.821769	1.061403	1.486942	10.000000	1.000000	9.000000
377	26	The dog was bitten by the snake.wav	2	passive	1	2	94.000000	2594.000000	2500.000000	1.592525	49.963355	9.000000	32.000000	0.203035	0.718450	0.051922	0.139200	13.000000	0.000000	12.000000
377	28	The panda is colored by the monkey.wav	2	passive	2	1	63.000000	3078.000000	3015.000000	1.862259	73.491106	64.000000	30.000000	0.239342	0.916895	-4.655859	0.879571	17.000000	0.000000	15.000000
377	31	The boxer is punched by the kangeroo.wav	2	passive	2	1	31.000000	3375.000000	3344.000000	3.190740	189.019591	84.000000	22.000000	0.482266	1.106276	-5.633774	1.820018	9.000000	3.000000	4.000000
377	33	The chicken was scared by the crow.wav	2	passive	2	1	109.000000	2547.000000	2438.000000	1.603530	57.840683	80.000000	20.000000	0.284418	0.770462	-0.429375	0.686247	4.000000	2.000000	2.000000
377	35	The aunt is assisted by her niece.wav	2	passive	2	1	31.000000	2594.000000	2563.000000	1.691678	111.113608	87.000000	28.000000	0.349896	0.860176	-17.230553	0.810130	15.000000	8.000000	5.000000
377	41	The husband was fed by his wife.wav	2	passive	1	2	110.000000	2875.000000	2765.000000	1.630461	64.980159	87.000000	34.000000	0.207945	0.648529	-12.805509	1.089810	9.000000	1.000000	6.000000
377	44	The skier was crushed by the snowboard.wav	2	passive	1	2	79.000000	3938.000000	3859.000000	2.018399	63.409076	50.000000	26.000000	0.108835	0.667985	-15.721125	0.814516	10.000000	2.000000	6.000000
377	48	The hero is killed by the robber.wav	2	passive	2	1	47.000000	2078.000000	2031.000000	1.641479	60.642511	81.000000	29.000000	0.288672	0.788139	-16.436308	0.833815	6.000000	2.000000	4.000000
377	53	The elephant was washed by the worker.wav	2	passive	2	1	78.000000	2703.000000	2625.000000	1.692512	57.332919	90.000000	39.000000	0.283645	0.860447	-3.028845	1.314514	16.000000	2.000000	14.000000
377	55	The chef was suprised by the mailman.wav	2	passive	1	2	62.000000	3640.000000	3578.000000	1.607282	51.869956	49.000000	24.000000	0.160797	0.726979	-9.945140	0.546249	9.000000	1.000000	8.000000
377	66	The pig was followed by the hen.wav	2	passive	2	1	157.000000	2922.000000	2765.000000	1.738277	54.533071	78.000000	25.000000	0.291753	0.848459	0.000000	0.851453	3.000000	0.000000	3.000000
377	69	The duck was led by the penguin.wav	2	passive	1	2	46.000000	2703.000000	2657.000000	2.255976	88.501840	96.000000	27.000000	0.389909	0.967917	-1.710637	1.813467	12.000000	1.000000	11.000000
377	80	The turtle was carried by the sheep.wav	2	passive	1	2	187.000000	3000.000000	2813.000000	1.620532	42.470253	72.000000	34.000000	0.136470	0.724412	-14.714566	1.043614	14.000000	2.000000	11.000000
403	27	The skier was crushed by the snowboard.wav	2	passive	1	2	125.000000	2718.000000	2593.000000	3.078239	168.930350	96.000000	29.000000	0.141525	0.742007	-2.503516	2.233587	25.000000	2.000000	23.000000
403	32	The pig was followed by the hen.wav	2	passive	2	1	94.000000	1953.000000	1859.000000	1.691110	152.129848	96.000000	34.000000	0.389101	0.826712	-12.264774	0.930460	14.000000	10.000000	4.000000
403	34	The hero is killed by the robber.wav	2	passive	2	1	62.000000	1890.000000	1828.000000	1.780714	112.585841	96.000000	48.000000	0.345225	0.777613	1.151150	1.217785	19.000000	2.000000	17.000000
403	44	The chicken was scared by the crow.wav	2	passive	2	1	109.000000	1969.000000	1860.000000	1.723825	106.148356	95.000000	46.000000	0.295393	0.715220	9.940860	1.089721	12.000000	5.000000	6.000000
403	54	The boxer is punched by the kangeroo.wav	2	passive	2	1	32.000000	1922.000000	1890.000000	1.607203	91.166791	96.000000	44.000000	0.287867	0.836977	0.000000	1.151369	10.000000	0.000000	10.000000
403	59	The aunt is assisted by her niece.wav	2	passive	2	1	94.000000	2141.000000	2047.000000	1.670467	154.254661	96.000000	39.000000	0.338794	0.957544	-11.729734	0.899193	22.000000	4.000000	18.000000
403	63	The turtle was carried by the sheep.wav	2	passive	1	2	78.000000	1969.000000	1891.000000	1.689994	152.277372	96.000000	41.000000	0.333222	0.793488	8.552441	0.928607	14.000000	2.000000	10.000000
403	64	The panda is colored by the monkey.wav	2	passive	2	1	78.000000	2828.000000	2750.000000	2.222049	179.230010	96.000000	34.000000	0.354292	0.977552	-4.100683	1.325899	32.000000	4.000000	27.000000
403	68	The dog was bitten by the snake.wav	2	passive	1	2	187.000000	2062.000000	1875.000000	1.707854	121.842656	92.000000	38.000000	0.380497	0.905833	33.179396	0.832704	12.000000	4.000000	8.000000
403	70	The duck was led by the penguin.wav	2	passive	1	2	109.000000	2062.000000	1953.000000	1.617254	124.472774	95.000000	37.000000	0.247384	0.701639	-7.536983	0.928595	9.000000	5.000000	4.000000
403	71	The boy is pushed by his sister.wav	2	passive	1	2	203.000000	2406.000000	2203.000000	1.550916	112.480686	95.000000	40.000000	0.291098	0.656994	-11.996209	0.847049	26.000000	18.000000	7.000000
403	74	The puppy was licked by the kitten.wav	2	passive	1	2	172.000000	1672.000000	1500.000000	1.512312	107.168014	95.000000	36.000000	0.244566	0.779085	-5.502468	0.931397	15.000000	3.000000	12.000000
403	75	The chef was suprised by the mailman.wav	2	passive	1	2	93.000000	2343.000000	2250.000000	1.851812	66.881230	93.000000	37.000000	0.298260	0.884468	-2.839003	1.404839	25.000000	2.000000	23.000000
403	79	The husband was fed by his wife.wav	2	passive	1	2	141.000000	2453.000000	2312.000000	2.092084	86.372605	89.000000	27.000000	0.367003	1.020812	-1.227579	1.281420	18.000000	2.000000	15.000000
409	18	The panda is colored by the monkey.wav	2	passive	2	1	125.000000	3312.000000	3187.000000	1.644965	123.164833	94.000000	25.000000	0.350278	0.682075	-29.137156	0.847454	3.000000	0.000000	3.000000
409	19	The chicken was scared by the crow.wav	2	passive	2	1	297.000000	2500.000000	2203.000000	1.682507	136.825058	91.000000	9.000000	0.282426	0.584080	-0.835785	0.580890	8.000000	4.000000	4.000000
409	21	The hero is killed by the robber.wav	2	passive	2	1	31.000000	1875.000000	1844.000000	1.463629	153.963042	94.000000	24.000000	0.276594	0.651018	6.789551	0.453846	15.000000	8.000000	7.000000
409	26	The dog was bitten by the snake.wav	2	passive	1	2	187.000000	1843.000000	1656.000000	1.597698	107.402373	96.000000	19.000000	0.205539	0.523759	-40.934871	1.060686	10.000000	2.000000	8.000000
409	36	The chef was suprised by the mailman.wav	2	passive	1	2	250.000000	2547.000000	2297.000000	1.589283	180.251915	89.000000	11.000000	0.250590	0.681145	-12.200469	0.649972	12.000000	4.000000	7.000000
409	38	The turtle was carried by the sheep.wav	2	passive	1	2	265.000000	1953.000000	1688.000000	1.864543	167.460306	17.000000	11.000000	0.142067	0.880272	-2.700351	0.079244	13.000000	1.000000	12.000000
409	54	The pig was followed by the hen.wav	2	passive	2	1	31.000000	2218.000000	2187.000000	2.176114	219.240034	10.000000	7.000000	0.271958	1.002165	-0.735433	0.236488	4.000000	2.000000	2.000000
409	67	The aunt is assisted by her niece.wav	2	passive	2	1	110.000000	2360.000000	2250.000000	1.950391	197.324319	10.000000	3.000000	0.283973	1.052373	-3.675728	0.164446	10.000000	1.000000	8.000000
409	73	The skier was crushed by the snowboard.wav	2	passive	1	2	125.000000	3563.000000	3438.000000	2.245945	290.057619	15.000000	16.000000	0.120542	0.648380	-17.583030	0.116925	6.000000	3.000000	3.000000
409	75	The boxer is punched by the kangeroo.wav	2	passive	2	1	47.000000	2188.000000	2141.000000	2.171474	80.457193	96.000000	16.000000	0.334767	1.059203	-0.574087	1.769188	13.000000	2.000000	11.000000
409	76	The duck was led by the penguin.wav	2	passive	1	2	47.000000	3719.000000	3672.000000	2.550480	217.641054	3.000000	9.000000	0.138445	0.956119	0.450384	0.016106	11.000000	1.000000	10.000000
409	77	The elephant was washed by the worker.wav	2	passive	2	1	62.000000	2734.000000	2672.000000	2.112004	199.777765	9.000000	14.000000	0.347660	0.967926	-0.902450	0.024701	12.000000	1.000000	10.000000
487	12	The chicken was scared by the crow.wav	2	passive	2	1	78.000000	2140.000000	2062.000000	1.601599	99.221901	85.000000	10.000000	0.258232	0.705035	1.604576	0.809599	7.000000	1.000000	5.000000
487	29	The chef was suprised by the mailman.wav	2	passive	1	2	266.000000	2906.000000	2640.000000	1.717328	127.244412	90.000000	27.000000	0.286058	0.509348	-18.051658	0.521257	21.000000	18.000000	3.000000
487	42	The dog was bitten by the snake.wav	2	passive	1	2	281.000000	3109.000000	2828.000000	2.256289	177.299823	86.000000	17.000000	0.366143	1.051100	7.268630	1.025074	15.000000	4.000000	11.000000
487	45	The husband was fed by his wife.wav	2	passive	1	2	265.000000	2687.000000	2422.000000	1.924196	183.484441	95.000000	18.000000	0.465609	0.781199	4.607991	0.905934	9.000000	2.000000	7.000000
487	48	The hero is killed by the robber.wav	2	passive	2	1	157.000000	2266.000000	2109.000000	1.839757	112.524969	92.000000	17.000000	0.339135	0.692405	17.393322	1.121894	10.000000	4.000000	6.000000
487	52	The aunt is assisted by her niece.wav	2	passive	2	1	94.000000	3422.000000	3328.000000	2.810835	214.556474	87.000000	31.000000	0.322261	0.374203	32.212606	0.974062	5.000000	3.000000	2.000000
487	56	The elephant was washed by the worker.wav	2	passive	2	1	78.000000	2265.000000	2187.000000	1.937716	129.385931	92.000000	17.000000	0.310089	0.519521	19.763511	0.981315	14.000000	1.000000	12.000000
487	66	The pig was followed by the hen.wav	2	passive	2	1	141.000000	3125.000000	2984.000000	3.519456	323.877242	96.000000	23.000000	0.620827	0.994805	-34.146285	1.900070	23.000000	14.000000	9.000000
487	70	The panda is colored by the monkey.wav	2	passive	2	1	125.000000	2219.000000	2094.000000	1.770529	212.449271	93.000000	19.000000	0.456244	0.519968	-24.108201	0.498765	15.000000	14.000000	1.000000
487	79	The boy is pushed by his sister.wav	2	passive	1	2	125.000000	2625.000000	2500.000000	1.612750	244.236981	96.000000	23.000000	0.311735	0.474287	-29.892593	0.391565	10.000000	9.000000	1.000000
487	80	The turtle was carried by the sheep.wav	2	passive	1	2	156.000000	2156.000000	2000.000000	1.738926	148.103022	90.000000	21.000000	0.278904	0.607700	1.503345	0.623472	8.000000	6.000000	2.000000
487	83	The puppy was licked by the kitten.wav	2	passive	1	2	125.000000	2329.000000	2204.000000	1.834988	133.084645	86.000000	21.000000	0.297776	0.613143	25.558915	0.861579	2.000000	1.000000	1.000000
527	14	The husband was fed by his wife.wav	2	passive	1	2	219.000000	2531.000000	2312.000000	3.018653	120.661288	81.000000	24.000000	0.357081	1.031639	3.199962	1.787358	13.000000	3.000000	10.000000
527	17	The elephant was washed by the worker.wav	2	passive	2	1	203.000000	1735.000000	1532.000000	1.811914	80.996091	15.000000	18.000000	0.071417	0.558380	21.470315	0.083908	8.000000	0.000000	8.000000
527	20	The hero is killed by the robber.wav	2	passive	2	1	156.000000	1969.000000	1813.000000	2.843129	114.973919	32.000000	17.000000	0.524225	1.139287	6.452780	0.729490	9.000000	2.000000	7.000000
527	27	The chicken was scared by the crow.wav	2	passive	2	1	125.000000	1578.000000	1453.000000	1.765212	62.675532	11.000000	24.000000	0.246561	0.719191	13.064267	0.128757	13.000000	2.000000	11.000000
527	30	The boy is pushed by his sister.wav	2	passive	1	2	125.000000	2109.000000	1984.000000	2.469545	105.140122	70.000000	28.000000	0.096937	0.718578	4.860702	1.167759	14.000000	2.000000	12.000000
527	36	The pig was followed by the hen.wav	2	passive	2	1	94.000000	1922.000000	1828.000000	2.891175	137.537248	89.000000	22.000000	0.368474	0.778160	22.887316	1.779664	9.000000	2.000000	7.000000
527	38	The duck was led by the penguin.wav	2	passive	1	2	125.000000	1437.000000	1312.000000	1.782959	64.898512	88.000000	17.000000	0.116484	0.763941	21.872031	1.383438	8.000000	3.000000	4.000000
527	44	The dog was bitten by the snake.wav	2	passive	1	2	78.000000	1875.000000	1797.000000	2.773235	106.088782	48.000000	22.000000	0.273904	1.020068	-14.017173	0.737224	10.000000	0.000000	10.000000
527	49	The chef was suprised by the mailman.wav	2	passive	1	2	109.000000	1438.000000	1329.000000	1.836460	99.037252	19.000000	30.000000	0.020081	0.729536	3.003321	0.710799	14.000000	2.000000	12.000000
527	61	The skier was crushed by the snowboard.wav	2	passive	1	2	32.000000	2891.000000	2859.000000	2.975437	100.935685	3.000000	14.000000	0.345806	1.122410	7.045769	0.061707	11.000000	1.000000	10.000000
527	70	The turtle was carried by the sheep.wav	2	passive	1	2	94.000000	2312.000000	2218.000000	3.194736	193.371739	96.000000	16.000000	0.458194	1.119521	1.248170	2.227877	14.000000	2.000000	12.000000
527	72	The boxer is punched by the kangeroo.wav	2	passive	2	1	234.000000	2047.000000	1813.000000	2.844293	119.426922	15.000000	21.000000	0.418755	0.931632	55.024849	0.236140	9.000000	2.000000	7.000000
527	78	The aunt is assisted by her niece.wav	2	passive	2	1	31.000000	2172.000000	2141.000000	3.112995	123.423955	89.000000	18.000000	0.458889	0.988153	-5.227493	2.085967	10.000000	1.000000	9.000000
527	79	The panda is colored by the monkey.wav	2	passive	2	1	125.000000	2079.000000	1954.000000	2.535666	98.601431	10.000000	30.000000	0.382405	1.062460	17.399235	0.212869	5.000000	1.000000	3.000000
593	13	The turtle was carried by the sheep.wav	2	passive	1	2	32.000000	1938.000000	1906.000000	1.683650	180.237028	95.000000	15.000000	0.309939	0.751247	20.041436	0.693176	4.000000	2.000000	2.000000
593	23	The aunt is assisted by her niece.wav	2	passive	2	1	47.000000	2266.000000	2219.000000	1.942770	241.768986	96.000000	5.000000	0.439783	0.746898	6.549930	0.733925	7.000000	1.000000	6.000000
593	26	The chef was suprised by the mailman.wav	2	passive	1	2	31.000000	2141.000000	2110.000000	1.677650	216.091056	86.000000	7.000000	0.329554	0.565887	0.828550	0.452913	11.000000	4.000000	6.000000
593	27	The dog was bitten by the snake.wav	2	passive	1	2	31.000000	1406.000000	1375.000000	1.602681	211.100394	94.000000	10.000000	0.410526	0.666921	1.744224	0.322573	6.000000	2.000000	4.000000
593	32	The hero is killed by the robber.wav	2	passive	2	1	31.000000	1625.000000	1594.000000	1.124243	131.704305	96.000000	7.000000	0.234539	0.814962	-4.285408	0.465722	4.000000	1.000000	3.000000
593	34	The boy is pushed by his sister.wav	2	passive	1	2	93.000000	1921.000000	1828.000000	1.635743	210.074632	96.000000	8.000000	0.354277	0.710274	11.337136	0.585369	7.000000	1.000000	6.000000
593	36	The chicken was scared by the crow.wav	2	passive	2	1	47.000000	1828.000000	1781.000000	1.693453	239.193215	96.000000	28.000000	0.375399	0.539301	6.092493	0.497487	12.000000	11.000000	1.000000
593	40	The duck was led by the penguin.wav	2	passive	1	2	46.000000	1703.000000	1657.000000	1.723507	215.716888	96.000000	18.000000	0.356724	0.753804	2.739206	0.644923	14.000000	2.000000	12.000000
593	42	The pig was followed by the hen.wav	2	passive	2	1	31.000000	2843.000000	2812.000000	2.189969	271.103358	96.000000	28.000000	0.718720	0.850525	-24.181788	0.834452	16.000000	0.000000	15.000000
593	60	The skier was crushed by the snowboard.wav	2	passive	1	2	31.000000	2219.000000	2188.000000	1.677715	149.589654	77.000000	15.000000	0.208430	0.588167	-9.680533	0.461873	10.000000	3.000000	7.000000
593	64	The puppy was licked by the kitten.wav	2	passive	1	2	594.000000	1735.000000	1141.000000	1.525568	176.247749	89.000000	17.000000	0.318604	0.578781	-18.391312	0.323871	9.000000	9.000000	0.000000
593	66	The boxer is punched by the kangeroo.wav	2	passive	2	1	187.000000	1656.000000	1469.000000	1.528938	224.527644	96.000000	11.000000	0.344822	0.586029	5.191932	0.406300	7.000000	1.000000	5.000000
593	73	The elephant was washed by the worker.wav	2	passive	2	1	47.000000	1766.000000	1719.000000	1.543828	186.947283	96.000000	25.000000	0.280155	0.602097	9.344030	0.609091	16.000000	3.000000	12.000000
593	74	The panda is colored by the monkey.wav	2	passive	2	1	140.000000	2234.000000	2094.000000	2.217111	197.736844	88.000000	16.000000	0.399698	0.678605	25.406593	0.922785	14.000000	2.000000	11.000000
611	12	The elephant was washed by the worker.wav	2	passive	2	1	47.000000	2813.000000	2766.000000	2.632752	228.488327	95.000000	7.000000	0.380194	0.834407	-2.161447	1.367710	5.000000	1.000000	4.000000
611	19	The boy is pushed by his sister.wav	2	passive	1	2	31.000000	2391.000000	2360.000000	2.152828	146.502487	2.000000	14.000000	0.491950	0.891281	3.035886	0.020000	5.000000	0.000000	5.000000
611	29	The chicken was scared by the crow.wav	2	passive	2	1	47.000000	2328.000000	2281.000000	1.706563	118.503847	6.000000	7.000000	0.189913	0.679842	9.720216	0.163845	5.000000	1.000000	4.000000
611	45	The husband was fed by his wife.wav	2	passive	1	2	31.000000	2328.000000	2297.000000	1.720645	194.453284	96.000000	9.000000	0.365038	0.755499	-20.658910	0.748378	12.000000	2.000000	9.000000
611	57	The dog was bitten by the snake.wav	2	passive	1	2	47.000000	1969.000000	1922.000000	1.772394	157.967596	96.000000	12.000000	0.387563	0.825722	-0.927271	0.982556	8.000000	1.000000	7.000000
611	60	The boxer is punched by the kangeroo.wav	2	passive	2	1	31.000000	2750.000000	2719.000000	1.678673	110.415247	91.000000	18.000000	0.183200	0.614461	27.781155	0.902792	12.000000	0.000000	11.000000
611	63	The panda is colored by the monkey.wav	2	passive	2	1	94.000000	2438.000000	2344.000000	1.851413	153.504349	4.000000	11.000000	0.269622	0.869459	-0.496772	0.029500	10.000000	0.000000	8.000000
611	65	The chef was suprised by the mailman.wav	2	passive	1	2	31.000000	2015.000000	1984.000000	1.769163	118.344875	96.000000	13.000000	0.321244	0.911876	-5.988853	1.177439	13.000000	4.000000	7.000000
611	66	The pig was followed by the hen.wav	2	passive	2	1	32.000000	4235.000000	4203.000000	2.082907	138.568895	96.000000	5.000000	0.318157	0.815193	22.964855	1.390062	4.000000	0.000000	3.000000
611	77	The aunt is assisted by her niece.wav	2	passive	2	1	78.000000	2735.000000	2657.000000	1.593771	146.516827	84.000000	5.000000	0.280939	0.411008	24.489141	0.138029	1.000000	0.000000	1.000000
611	80	The turtle was carried by the sheep.wav	2	passive	1	2	110.000000	2797.000000	2687.000000	2.149465	222.802302	96.000000	11.000000	0.508590	1.057856	9.439978	1.035453	15.000000	1.000000	13.000000
611	83	The skier was crushed by the snowboard.wav	2	passive	1	2	47.000000	2328.000000	2281.000000	1.796532	189.566503	5.000000	8.000000	0.246725	0.795675	-6.126166	0.065880	6.000000	1.000000	4.000000
643	15	The husband was fed by his wife.wav	2	passive	1	2	47.000000	1859.000000	1812.000000	2.637118	256.837156	96.000000	5.000000	0.835047	1.647242	34.799642	1.352933	6.000000	2.000000	4.000000
643	19	The pig was followed by the hen.wav	2	passive	2	1	313.000000	4156.000000	3843.000000	2.078331	141.670270	30.000000	7.000000	0.199867	0.792651	2.966392	0.852894	5.000000	1.000000	2.000000
643	31	The skier was crushed by the snowboard.wav	2	passive	1	2	375.000000	2141.000000	1766.000000	4.429049	216.208069	96.000000	24.000000	0.502594	0.617063	-51.734730	3.348009	8.000000	3.000000	5.000000
643	48	The elephant was washed by the worker.wav	2	passive	2	1	234.000000	1734.000000	1500.000000	3.370604	128.000029	18.000000	24.000000	0.375148	0.838415	36.601165	0.181367	7.000000	3.000000	4.000000
643	53	The duck was led by the penguin.wav	2	passive	1	2	282.000000	3641.000000	3359.000000	3.395410	311.807658	10.000000	9.000000	0.153661	0.690831	-12.450577	0.085698	6.000000	1.000000	4.000000
643	54	The dog was bitten by the snake.wav	2	passive	1	2	203.000000	2578.000000	2375.000000	4.019710	211.086792	14.000000	22.000000	0.375144	1.322973	-2.924375	0.049879	13.000000	4.000000	8.000000
643	55	The chef was suprised by the mailman.wav	2	passive	1	2	140.000000	2047.000000	1907.000000	2.848911	257.349731	17.000000	13.000000	0.119696	0.946877	2.970018	0.190901	21.000000	4.000000	16.000000
643	60	The turtle was carried by the sheep.wav	2	passive	1	2	125.000000	1579.000000	1454.000000	2.350886	79.351944	15.000000	29.000000	0.235281	0.717623	-57.011776	0.033610	7.000000	2.000000	5.000000
643	63	The hero is killed by the robber.wav	2	passive	2	1	594.000000	2110.000000	1516.000000	4.614099	247.625688	85.000000	23.000000	0.432298	0.296134	54.849503	3.221513	10.000000	2.000000	8.000000
643	81	The puppy was licked by the kitten.wav	2	passive	1	2	250.000000	1750.000000	1500.000000	3.382322	144.041605	17.000000	36.000000	0.372541	1.170784	47.685127	0.092104	6.000000	2.000000	4.000000
678	18	The pig was followed by the hen.wav	2	passive	2	1	1235.000000	3532.000000	2297.000000	1.762088	196.801511	96.000000	16.000000	0.376350	0.716982	-35.723602	0.778081	7.000000	3.000000	3.000000
678	31	The chef was suprised by the mailman.wav	2	passive	1	2	47.000000	3750.000000	3703.000000	3.555414	101.106264	2.000000	30.000000	0.210414	0.804745	19.292589	0.020960	18.000000	1.000000	17.000000
678	35	The boy is pushed by his sister.wav	2	passive	1	2	94.000000	5078.000000	4984.000000	7.403182	148.856568	96.000000	44.000000	0.158039	0.833361	-3.172088	6.658899	23.000000	0.000000	23.000000
678	38	The boxer is punched by the kangeroo.wav	2	passive	2	1	141.000000	4000.000000	3859.000000	3.867187	167.454540	91.000000	35.000000	0.343944	0.522716	-19.207082	2.840421	20.000000	0.000000	20.000000
678	41	The dog was bitten by the snake.wav	2	passive	1	2	78.000000	4765.000000	4687.000000	4.477967	175.524837	71.000000	24.000000	0.163291	0.720466	-2.100884	3.276119	17.000000	0.000000	17.000000
678	42	The husband was fed by his wife.wav	2	passive	1	2	172.000000	3516.000000	3344.000000	2.740060	65.162604	56.000000	21.000000	0.113123	0.672969	0.023893	1.657020	19.000000	0.000000	18.000000
678	50	The hero is killed by the robber.wav	2	passive	2	1	62.000000	3281.000000	3219.000000	5.149682	152.136170	85.000000	26.000000	0.445172	0.544616	5.159494	3.848524	16.000000	1.000000	15.000000
678	51	The turtle was carried by the sheep.wav	2	passive	1	2	62.000000	6609.000000	6547.000000	14.157577	331.860422	42.000000	39.000000	0.154591	0.912426	-6.475576	2.855727	38.000000	1.000000	36.000000
678	53	The puppy was licked by the kitten.wav	2	passive	1	2	110.000000	4844.000000	4734.000000	6.819827	138.292738	63.000000	35.000000	0.112623	0.916692	1.299609	4.356056	25.000000	2.000000	22.000000
678	57	The elephant was washed by the worker.wav	2	passive	2	1	94.000000	3750.000000	3656.000000	5.201704	132.258911	85.000000	28.000000	0.502897	0.839893	-7.913191	3.960391	15.000000	2.000000	13.000000
678	58	The panda is colored by the monkey.wav	2	passive	2	1	94.000000	7985.000000	7891.000000	9.683258	248.867250	59.000000	41.000000	0.491683	0.581320	-7.294196	5.862297	31.000000	0.000000	31.000000
678	61	The chicken was scared by the crow.wav	2	passive	2	1	110.000000	4610.000000	4500.000000	5.257545	131.486912	96.000000	47.000000	0.335305	0.488505	-15.749942	4.600110	27.000000	1.000000	26.000000
678	68	The aunt is assisted by her niece.wav	2	passive	2	1	110.000000	4047.000000	3937.000000	3.134645	83.828669	66.000000	27.000000	0.311282	0.780151	-8.386493	2.213266	12.000000	1.000000	11.000000
678	73	The skier was crushed by the snowboard.wav	2	passive	1	2	109.000000	12500.000000	12391.000000	7.909247	236.642843	37.000000	22.000000	0.390196	0.894540	1.699414	2.084913	29.000000	0.000000	27.000000
697	13	The duck was led by the penguin.wav	2	passive	1	2	515.000000	2750.000000	2235.000000	2.149244	176.159938	96.000000	29.000000	0.378974	0.988609	1.653546	1.268444	18.000000	1.000000	16.000000
697	15	The chicken was scared by the crow.wav	2	passive	2	1	219.000000	2516.000000	2297.000000	1.703471	117.704357	96.000000	20.000000	0.260105	0.722840	15.535699	1.114949	13.000000	2.000000	11.000000
697	18	The boxer is punched by the kangeroo.wav	2	passive	2	1	312.000000	2359.000000	2047.000000	1.678210	97.682816	96.000000	38.000000	0.203766	0.792849	-10.347485	1.189796	23.000000	3.000000	20.000000
697	30	The chef was suprised by the mailman.wav	2	passive	1	2	547.000000	2485.000000	1938.000000	1.559891	101.282797	90.000000	29.000000	0.249357	0.671357	-2.539231	0.788316	14.000000	5.000000	8.000000
697	36	The aunt is assisted by her niece.wav	2	passive	2	1	203.000000	2297.000000	2094.000000	1.622750	96.245008	95.000000	38.000000	0.174691	0.637763	35.347939	1.060697	19.000000	6.000000	13.000000
697	41	The panda is colored by the monkey.wav	2	passive	2	1	109.000000	2328.000000	2219.000000	1.541441	114.253344	96.000000	25.000000	0.263431	0.572785	35.249697	0.970175	20.000000	11.000000	9.000000
697	45	The husband was fed by his wife.wav	2	passive	1	2	281.000000	2687.000000	2406.000000	1.957991	163.446229	86.000000	15.000000	0.237730	0.800081	-19.634855	0.840264	14.000000	1.000000	13.000000
697	47	The skier was crushed by the snowboard.wav	2	passive	1	2	282.000000	2407.000000	2125.000000	1.564011	134.685285	96.000000	24.000000	0.148454	0.562621	-44.889115	0.890584	6.000000	3.000000	3.000000
697	62	The hero is killed by the robber.wav	2	passive	2	1	31.000000	2422.000000	2391.000000	2.000033	85.458386	96.000000	16.000000	0.232308	0.839604	0.300894	1.572741	12.000000	1.000000	11.000000
697	65	The boy is pushed by his sister.wav	2	passive	1	2	204.000000	2094.000000	1890.000000	1.798267	118.235570	87.000000	17.000000	0.204839	0.589297	-11.775500	0.951340	19.000000	3.000000	15.000000
697	66	The pig was followed by the hen.wav	2	passive	2	1	328.000000	2328.000000	2000.000000	1.583289	123.048280	83.000000	31.000000	0.255944	0.663490	1.041129	0.675641	15.000000	4.000000	11.000000
697	72	The dog was bitten by the snake.wav	2	passive	1	2	375.000000	1766.000000	1391.000000	1.614702	96.404987	78.000000	16.000000	0.086687	0.564013	-26.554932	0.819896	15.000000	3.000000	12.000000
697	74	The elephant was washed by the worker.wav	2	passive	2	1	266.000000	3125.000000	2859.000000	3.620508	125.158023	31.000000	21.000000	0.503110	1.185218	-19.732412	0.308945	8.000000	0.000000	8.000000
697	80	The turtle was carried by the sheep.wav	2	passive	1	2	188.000000	4375.000000	4187.000000	1.662705	71.699688	7.000000	21.000000	0.059140	0.654526	-20.295347	0.064796	10.000000	2.000000	7.000000
713	11	The aunt is assisted by her niece.wav	2	passive	2	1	32.000000	1594.000000	1562.000000	2.528955	178.329765	4.000000	27.000000	0.183796	1.135406	-8.102163	0.307566	11.000000	0.000000	10.000000
713	38	The panda is colored by the monkey.wav	2	passive	2	1	31.000000	2281.000000	2250.000000	3.391803	218.915954	95.000000	10.000000	0.467776	0.951874	3.718642	2.151712	4.000000	2.000000	2.000000
713	39	The duck was led by the penguin.wav	2	passive	1	2	31.000000	2031.000000	2000.000000	1.828943	129.025241	6.000000	13.000000	0.224171	0.922644	0.356661	0.223906	10.000000	1.000000	9.000000
713	40	The boxer is punched by the kangeroo.wav	2	passive	2	1	31.000000	2109.000000	2078.000000	1.935033	147.241671	96.000000	8.000000	0.301622	0.903081	4.467659	1.198824	11.000000	1.000000	9.000000
713	55	The chicken was scared by the crow.wav	2	passive	2	1	31.000000	2297.000000	2266.000000	2.116459	253.353002	8.000000	20.000000	0.159381	0.823139	7.687037	0.222722	14.000000	2.000000	12.000000
713	57	The chef was suprised by the mailman.wav	2	passive	1	2	31.000000	2359.000000	2328.000000	1.814859	97.778543	6.000000	11.000000	0.356742	0.896132	15.386736	0.152883	4.000000	1.000000	3.000000
713	63	The husband was fed by his wife.wav	2	passive	1	2	31.000000	1875.000000	1844.000000	2.037874	106.074160	12.000000	15.000000	0.329072	1.147470	21.164899	0.591048	7.000000	2.000000	5.000000
713	66	The pig was followed by the hen.wav	2	passive	2	1	62.000000	10453.000000	10391.000000	3.220559	284.265329	1.000000	10.000000	0.542309	0.938053	5.049404	0.000000	4.000000	0.000000	3.000000
713	69	The elephant was washed by the worker.wav	2	passive	2	1	78.000000	2438.000000	2360.000000	2.268267	187.868042	9.000000	6.000000	0.400815	0.903600	17.521426	0.275938	14.000000	2.000000	11.000000
713	80	The turtle was carried by the sheep.wav	2	passive	1	2	31.000000	3468.000000	3437.000000	3.002389	180.538958	3.000000	14.000000	0.290126	1.078743	17.932996	0.097899	11.000000	0.000000	10.000000
713	81	The skier was crushed by the snowboard.wav	2	passive	1	2	32.000000	3657.000000	3625.000000	3.861731	212.738637	2.000000	21.000000	0.429438	1.100131	6.805781	0.047401	14.000000	0.000000	13.000000
732	27	The chicken was scared by the crow.wav	2	passive	2	1	2734.000000	3359.000000	625.000000	1.539875	298.779310	96.000000	4.000000	0.400547	0.567205	24.509196	0.045979	4.000000	4.000000	0.000000
732	39	The pig was followed by the hen.wav	2	passive	2	1	32.000000	2235.000000	2203.000000	2.350819	217.622828	4.000000	5.000000	0.457024	1.046774	-4.272190	0.256273	7.000000	0.000000	6.000000
732	42	The husband was fed by his wife.wav	2	passive	1	2	62.000000	2312.000000	2250.000000	1.804145	181.347258	7.000000	7.000000	0.098949	0.899143	-0.287831	0.179650	7.000000	2.000000	5.000000
732	51	The duck was led by the penguin.wav	2	passive	1	2	31.000000	2250.000000	2219.000000	2.034822	201.306077	4.000000	8.000000	0.387000	1.161360	11.803216	0.150610	6.000000	1.000000	4.000000
732	52	The boxer is punched by the kangeroo.wav	2	passive	2	1	32.000000	2110.000000	2078.000000	2.214597	182.146761	3.000000	7.000000	0.298872	0.911904	0.304591	0.083840	4.000000	0.000000	4.000000
732	62	The turtle was carried by the sheep.wav	2	passive	1	2	47.000000	2125.000000	2078.000000	2.121354	136.236893	96.000000	31.000000	0.293017	0.978719	0.933153	1.440169	16.000000	5.000000	11.000000
732	73	The skier was crushed by the snowboard.wav	2	passive	1	2	141.000000	3032.000000	2891.000000	2.780207	251.425107	11.000000	8.000000	0.305324	1.275666	19.051829	0.286501	7.000000	2.000000	5.000000
732	74	The hero is killed by the robber.wav	2	passive	2	1	187.000000	2515.000000	2328.000000	2.199988	157.426657	9.000000	4.000000	0.478516	0.982548	0.625828	0.112052	6.000000	1.000000	4.000000
732	75	The panda is colored by the monkey.wav	2	passive	2	1	125.000000	2140.000000	2015.000000	1.945947	159.484121	96.000000	8.000000	0.398906	0.955264	1.095126	1.148526	5.000000	2.000000	3.000000
732	77	The boy is pushed by his sister.wav	2	passive	1	2	31.000000	2750.000000	2719.000000	1.970638	196.730769	4.000000	6.000000	0.244446	0.980102	-1.068043	0.180392	8.000000	1.000000	5.000000
732	82	The elephant was washed by the worker.wav	2	passive	2	1	32.000000	2125.000000	2093.000000	2.000967	149.218016	3.000000	6.000000	0.259341	0.910774	1.546464	0.101437	5.000000	0.000000	4.000000
732	84	The chef was suprised by the mailman.wav	2	passive	1	2	62.000000	2969.000000	2907.000000	2.594328	178.272248	6.000000	12.000000	0.451987	1.293034	30.983497	0.089519	11.000000	2.000000	8.000000
758	16	The skier was crushed by the snowboard.wav	2	passive	1	2	359.000000	2844.000000	2485.000000	1.668405	73.667961	93.000000	29.000000	0.265893	0.627196	-11.138680	1.156627	21.000000	17.000000	4.000000
758	17	The dog was bitten by the snake.wav	2	passive	1	2	203.000000	1969.000000	1766.000000	1.623337	173.216816	94.000000	26.000000	0.303479	0.568822	-1.349210	0.487335	22.000000	6.000000	16.000000
758	20	The hero is killed by the robber.wav	2	passive	2	1	578.000000	2265.000000	1687.000000	1.538429	226.108812	96.000000	12.000000	0.400749	0.538245	20.200271	0.407885	9.000000	8.000000	1.000000
758	21	The chef was suprised by the mailman.wav	2	passive	1	2	32.000000	1813.000000	1781.000000	1.464216	113.066372	94.000000	41.000000	0.283491	0.604420	-8.448064	0.669093	15.000000	13.000000	2.000000
758	27	The turtle was carried by the sheep.wav	2	passive	1	2	765.000000	2078.000000	1313.000000	1.851501	110.597788	88.000000	29.000000	0.255534	0.661153	-17.334176	1.124084	5.000000	1.000000	3.000000
758	33	The aunt is assisted by her niece.wav	2	passive	2	1	203.000000	1812.000000	1609.000000	1.615073	77.275055	95.000000	42.000000	0.305654	0.673993	3.923990	1.195692	22.000000	5.000000	17.000000
758	38	The puppy was licked by the kitten.wav	2	passive	1	2	281.000000	2062.000000	1781.000000	2.144806	109.032949	88.000000	17.000000	0.309355	0.941352	20.122941	1.465924	13.000000	6.000000	7.000000
758	48	The pig was followed by the hen.wav	2	passive	2	1	360.000000	4079.000000	3719.000000	6.446542	321.652978	52.000000	22.000000	0.383065	1.246044	-6.676553	1.803214	11.000000	4.000000	7.000000
758	72	The husband was fed by his wife.wav	2	passive	1	2	156.000000	2172.000000	2016.000000	1.887469	98.593139	95.000000	50.000000	0.301324	0.940133	4.745010	1.350101	3.000000	3.000000	0.000000
758	76	The chicken was scared by the crow.wav	2	passive	2	1	500.000000	2406.000000	1906.000000	2.903787	271.974266	96.000000	22.000000	0.397811	1.433937	3.452366	1.543916	15.000000	14.000000	1.000000
758	79	The elephant was washed by the worker.wav	2	passive	2	1	453.000000	2266.000000	1813.000000	1.652965	131.663485	96.000000	31.000000	0.267845	0.809915	9.462322	0.994648	21.000000	9.000000	12.000000
896	27	The hero is killed by the robber.wav	2	passive	2	1	47.000000	2172.000000	2125.000000	3.948992	240.754394	12.000000	16.000000	0.514689	-0.047563	64.798876	1.474583	9.000000	1.000000	8.000000
896	40	The chicken was scared by the crow.wav	2	passive	2	1	328.000000	3156.000000	2828.000000	1.575800	282.970135	58.000000	5.000000	0.144413	0.471127	34.756504	0.127324	3.000000	2.000000	1.000000
896	48	The puppy was licked by the kitten.wav	2	passive	1	2	31.000000	1844.000000	1813.000000	1.791628	110.085095	90.000000	21.000000	0.299278	0.796074	-15.588698	0.955583	5.000000	2.000000	3.000000
896	50	The dog was bitten by the snake.wav	2	passive	1	2	140.000000	1672.000000	1532.000000	1.728797	110.633548	85.000000	17.000000	0.244196	0.815911	1.318524	0.907485	9.000000	3.000000	6.000000
896	66	The pig was followed by the hen.wav	2	passive	2	1	93.000000	1953.000000	1860.000000	1.960459	227.204045	94.000000	4.000000	0.579234	0.725407	-9.188836	0.692936	8.000000	2.000000	6.000000
896	79	The chef was suprised by the mailman.wav	2	passive	1	2	125.000000	2250.000000	2125.000000	1.508479	185.238262	92.000000	23.000000	0.244659	0.527084	-29.950522	0.510406	18.000000	1.000000	16.000000
896	81	The boxer is punched by the kangeroo.wav	2	passive	2	1	188.000000	2172.000000	1984.000000	1.821404	157.414031	88.000000	11.000000	0.354273	0.818228	-9.110083	0.883386	15.000000	1.000000	13.000000
896	84	The boy is pushed by his sister.wav	2	passive	1	2	47.000000	1406.000000	1359.000000	1.578373	156.529264	93.000000	13.000000	0.366678	0.671286	4.324364	0.515692	8.000000	2.000000	6.000000
91011	19	The dog was bitten by the snake.wav	2	passive	1	2	140.000000	1500.000000	1360.000000	1.680532	78.321312	88.000000	32.000000	0.334003	0.708992	-2.661686	0.880274	13.000000	8.000000	5.000000
91011	23	The aunt is assisted by her niece.wav	2	passive	2	1	578.000000	1734.000000	1156.000000	1.627444	97.730229	96.000000	22.000000	0.173556	0.454294	39.631920	1.138793	24.000000	10.000000	14.000000
91011	26	The chef was suprised by the mailman.wav	2	passive	1	2	93.000000	2609.000000	2516.000000	2.244723	80.936839	96.000000	18.000000	0.329566	0.971403	3.256789	1.840038	17.000000	2.000000	15.000000
91011	27	The puppy was licked by the kitten.wav	2	passive	1	2	328.000000	1719.000000	1391.000000	1.793963	114.319278	90.000000	27.000000	0.330919	0.704462	1.768000	1.011244	9.000000	4.000000	5.000000
91011	32	The husband was fed by his wife.wav	2	passive	1	2	156.000000	1672.000000	1516.000000	1.782592	74.266402	84.000000	36.000000	0.231511	0.714179	-16.996014	1.081278	27.000000	8.000000	19.000000
91011	36	The chicken was scared by the crow.wav	2	passive	2	1	594.000000	2016.000000	1422.000000	1.498853	153.084377	89.000000	11.000000	0.242770	0.518438	10.431607	0.514005	14.000000	7.000000	7.000000
91011	40	The duck was led by the penguin.wav	2	passive	1	2	610.000000	2532.000000	1922.000000	2.400748	167.610349	85.000000	18.000000	0.517305	1.180060	40.379383	1.113738	9.000000	3.000000	6.000000
91011	54	The pig was followed by the hen.wav	2	passive	2	1	78.000000	3312.000000	3234.000000	2.965726	168.322656	91.000000	18.000000	0.358079	0.750318	39.565611	2.084943	8.000000	3.000000	5.000000
91011	57	The hero is killed by the robber.wav	2	passive	2	1	188.000000	2203.000000	2015.000000	1.794279	134.028596	94.000000	32.000000	0.305057	0.623188	16.817405	0.975892	8.000000	3.000000	5.000000
91011	66	The boxer is punched by the kangeroo.wav	2	passive	2	1	93.000000	1890.000000	1797.000000	1.976848	155.858342	85.000000	22.000000	0.386943	0.939153	-27.088394	0.985388	19.000000	4.000000	15.000000
91011	73	The skier was crushed by the snowboard.wav	2	passive	1	2	453.000000	1969.000000	1516.000000	1.580652	111.736686	90.000000	17.000000	0.267095	0.541072	-15.967639	0.785701	9.000000	5.000000	4.000000
10	11	The pig was followed by the hen.wav	2	passive	2	1	166.000000	2384.000000	2218.000000	1.530338	134.780028	91.000000	2.000000	0.312632	0.656332	-1.158397	0.335171	6.000000	2.000000	3.000000
10	16	The hero is killed by the robber.wav	2	passive	2	1	56.000000	2165.000000	2109.000000	1.671009	140.920615	96.000000	20.000000	0.344262	0.792181	3.385159	0.966405	24.000000	11.000000	13.000000
10	17	The cloud hides the sun.wav	1	declarative	1	2	88.000000	2229.000000	2141.000000	1.579374	197.849796	96.000000	22.000000	0.329376	0.839044	6.635604	0.590125	20.000000	4.000000	15.000000
10	18	The princess slaps the prince.wav	1	declarative	2	1	72.000000	1494.000000	1422.000000	1.607560	167.778308	96.000000	14.000000	0.315847	0.729710	12.106641	0.768668	8.000000	1.000000	7.000000
10	28	The elephant was washed by the worker.wav	2	passive	2	1	57.000000	1838.000000	1781.000000	1.606144	160.969147	96.000000	23.000000	0.311054	0.915005	-7.251691	0.801298	16.000000	5.000000	11.000000
10	30	The kid tickles the mom.wav	1	declarative	1	2	119.000000	1400.000000	1281.000000	1.686479	141.931011	96.000000	32.000000	0.336398	0.741088	10.802506	0.976824	10.000000	8.000000	2.000000
10	34	The grandmother finds the grandson.wav	1	declarative	2	1	55.000000	2492.000000	2437.000000	1.916838	96.411770	96.000000	16.000000	0.329379	0.827419	-7.525697	1.434779	15.000000	7.000000	7.000000
10	38	The dog was bitten by the snake.wav	2	passive	1	2	87.000000	2727.000000	2640.000000	1.458340	146.662643	96.000000	26.000000	0.251629	0.770023	-5.890279	0.725027	38.000000	4.000000	33.000000
10	40	The aunt is assisted by her niece.wav	2	passive	2	1	134.000000	2024.000000	1890.000000	1.682224	153.765765	96.000000	25.000000	0.303370	0.849152	1.409729	0.913395	17.000000	2.000000	13.000000
10	41	The puppy was licked by the kitten.wav	2	passive	1	2	477.000000	1695.000000	1218.000000	1.617433	105.125896	96.000000	22.000000	0.353925	0.736988	-4.767372	1.091803	19.000000	13.000000	5.000000
10	42	The panda is colored by the monkey.wav	2	passive	2	1	102.000000	2071.000000	1969.000000	1.743246	177.622373	96.000000	28.000000	0.340480	0.940259	-5.912252	0.855134	22.000000	4.000000	17.000000
10	44	The bus hits the motorcycle.wav	1	declarative	2	1	40.000000	1837.000000	1797.000000	1.683752	91.545976	96.000000	26.000000	0.234353	0.816355	7.175581	1.226022	12.000000	4.000000	8.000000
10	45	The boy is pushed by his sister.wav	2	passive	1	2	40.000000	1602.000000	1562.000000	1.517575	123.161647	96.000000	32.000000	0.269055	0.776114	-1.771470	0.901767	8.000000	5.000000	3.000000
10	46	The bird watches the alligator.wav	1	declarative	1	2	72.000000	2025.000000	1953.000000	1.514616	129.166922	96.000000	35.000000	0.265913	0.755686	-1.719680	0.868781	31.000000	6.000000	25.000000
10	47	The chicken was scared by the crow.wav	2	passive	2	1	118.000000	1946.000000	1828.000000	1.635380	201.132426	96.000000	20.000000	0.387894	0.818934	-5.763854	0.629718	32.000000	6.000000	25.000000
10	52	The cat attacks the fireman.wav	1	declarative	1	2	102.000000	2117.000000	2015.000000	2.076794	130.147889	96.000000	16.000000	0.310667	1.090339	-0.022003	1.426054	12.000000	4.000000	8.000000
10	58	The fish eats the fisherman.wav	1	declarative	2	1	41.000000	1494.000000	1453.000000	1.698474	165.188449	96.000000	32.000000	0.367370	0.977419	-6.332714	0.872531	35.000000	12.000000	23.000000
10	60	The baby touches the hamster.wav	1	declarative	1	2	118.000000	1805.000000	1687.000000	1.541990	122.081028	96.000000	37.000000	0.237526	0.753528	-7.510154	0.931584	30.000000	11.000000	19.000000
10	61	The seagull chases the tourist.wav	1	declarative	2	1	181.000000	1649.000000	1468.000000	1.669125	141.497314	94.000000	24.000000	0.311621	0.758758	5.810404	0.864932	12.000000	3.000000	9.000000
10	64	The turtle was carried by the sheep.wav	2	passive	1	2	118.000000	1789.000000	1671.000000	1.579048	107.494535	96.000000	23.000000	0.278323	0.902275	4.370660	1.041575	15.000000	3.000000	12.000000
10	69	The chef was suprised by the mailman.wav	2	passive	1	2	212.000000	2399.000000	2187.000000	1.627596	148.616638	96.000000	21.000000	0.305978	0.902824	7.716957	0.884512	16.000000	1.000000	14.000000
10	70	The nurse hugs the surgeon.wav	1	declarative	2	1	197.000000	1478.000000	1281.000000	1.629674	183.113563	96.000000	33.000000	0.377180	0.806278	-4.540955	0.714106	16.000000	4.000000	12.000000
10	72	The tiger lifts the bear.wav	1	declarative	1	2	134.000000	1399.000000	1265.000000	1.588962	143.460800	96.000000	29.000000	0.263411	0.731789	5.498630	0.871658	10.000000	4.000000	6.000000
10	73	The zebra kicks the horse.wav	1	declarative	1	2	87.000000	1228.000000	1141.000000	1.668344	141.727307	95.000000	28.000000	0.261425	0.683143	-5.387291	0.880729	21.000000	6.000000	15.000000
10	74	The boxer is punched by the kangeroo.wav	2	passive	2	1	40.000000	1961.000000	1921.000000	1.910243	182.935321	96.000000	17.000000	0.427174	0.976308	2.835736	0.995567	7.000000	2.000000	5.000000
10	75	The duck was led by the penguin.wav	2	passive	2	2	71.000000	2759.000000	2688.000000	1.844061	54.290480	96.000000	25.000000	0.311512	0.913468	-2.401532	1.572609	8.000000	2.000000	6.000000
10	76	The husband was fed by his wife.wav	2	passive	1	2	243.000000	1883.000000	1640.000000	1.589069	183.652219	96.000000	33.000000	0.359402	0.767181	1.779225	0.670808	3.000000	3.000000	0.000000
10	77	The daughter kisses the king.wav	1	declarative	1	2	165.000000	1555.000000	1390.000000	1.614623	126.245712	96.000000	30.000000	0.357971	0.740970	-1.722158	0.983394	15.000000	5.000000	10.000000
10	82	The skier was crushed by the snowboard.wav	2	passive	1	2	118.000000	2446.000000	2328.000000	1.792920	72.820497	96.000000	21.000000	0.284641	0.882330	-4.302263	1.428817	16.000000	3.000000	13.000000
10	85	The robber shoots the policeman.wav	1	declarative	2	1	150.000000	1634.000000	1484.000000	1.609516	195.197644	96.000000	38.000000	0.377116	0.755231	2.781324	0.633528	23.000000	10.000000	13.000000
11	11	The boy is pushed by his sister.wav	2	passive	1	2	165.000000	1930.000000	1765.000000	1.860653	85.276908	85.000000	19.000000	0.351650	0.926986	7.175514	0.960787	19.000000	1.000000	18.000000
11	14	The chicken was scared by the crow.wav	2	passive	2	1	55.000000	2117.000000	2062.000000	1.831981	73.884141	87.000000	28.000000	0.308461	0.866500	3.049141	1.023886	14.000000	1.000000	13.000000
11	17	The aunt is assisted by her niece.wav	2	passive	1	1	40.000000	1821.000000	1781.000000	1.517193	75.840376	96.000000	19.000000	0.163323	0.713656	-4.079750	1.137991	13.000000	1.000000	12.000000
11	21	The nurse hugs the surgeon.wav	1	declarative	2	1	118.000000	1618.000000	1500.000000	1.790052	80.071131	91.000000	13.000000	0.303058	0.805663	7.777207	1.212279	7.000000	2.000000	5.000000
11	22	The dog was bitten by the snake.wav	2	passive	1	2	118.000000	2227.000000	2109.000000	1.740958	100.583946	93.000000	14.000000	0.335345	0.870440	6.585237	1.136257	8.000000	1.000000	6.000000
11	25	The kid tickles the mom.wav	1	declarative	1	2	71.000000	2571.000000	2500.000000	2.414162	119.211476	96.000000	16.000000	0.332326	0.921951	-4.869504	1.818105	12.000000	2.000000	10.000000
11	33	The princess slaps the prince.wav	1	declarative	2	1	86.000000	2055.000000	1969.000000	1.819704	128.599873	95.000000	7.000000	0.291628	0.836460	11.169502	1.137340	3.000000	1.000000	1.000000
11	35	The baby touches the hamster.wav	1	declarative	2	2	40.000000	3165.000000	3125.000000	1.762283	117.316583	96.000000	18.000000	0.215610	0.781793	9.731285	1.175700	6.000000	1.000000	5.000000
11	41	The daughter kisses the king.wav	1	declarative	1	2	56.000000	2071.000000	2015.000000	1.821725	77.138323	93.000000	13.000000	0.365939	0.934698	9.008504	1.308704	8.000000	2.000000	6.000000
11	42	The boxer is punched by the kangeroo.wav	2	passive	1	1	149.000000	2649.000000	2500.000000	1.667779	123.571094	96.000000	12.000000	0.315592	0.827523	5.429318	1.049923	8.000000	3.000000	4.000000
11	43	The cat attacks the fireman.wav	1	declarative	1	2	88.000000	2197.000000	2109.000000	1.606462	116.665397	94.000000	12.000000	0.325940	0.743707	5.236920	0.912005	12.000000	2.000000	10.000000
11	45	The tiger lifts the bear.wav	1	declarative	1	2	40.000000	2009.000000	1969.000000	1.716684	96.930625	90.000000	10.000000	0.351220	0.842648	11.754014	0.969035	9.000000	2.000000	6.000000
11	46	The fish eats the fisherman.wav	1	declarative	2	1	134.000000	1806.000000	1672.000000	1.986333	62.256457	13.000000	23.000000	0.347811	0.869745	0.287194	0.185659	8.000000	1.000000	6.000000
11	48	The bus hits the motorcycle.wav	1	declarative	2	1	134.000000	2197.000000	2063.000000	1.875973	80.793830	10.000000	16.000000	0.313984	0.906568	2.763464	0.194833	5.000000	2.000000	3.000000
11	52	The cloud hides the sun.wav	1	declarative	1	2	103.000000	2384.000000	2281.000000	1.750885	78.111041	8.000000	7.000000	0.310776	0.794924	0.380474	0.148500	6.000000	0.000000	5.000000
11	54	The seagull chases the tourist.wav	1	declarative	2	1	103.000000	2010.000000	1907.000000	1.987970	116.803216	11.000000	13.000000	0.383581	0.959494	8.076640	0.263000	3.000000	1.000000	1.000000
11	55	The puppy was licked by the kitten.wav	2	passive	1	2	56.000000	2869.000000	2813.000000	1.672979	141.493702	92.000000	10.000000	0.342644	0.786143	5.499106	0.784430	15.000000	0.000000	14.000000
11	57	The bird watches the alligator.wav	1	declarative	1	2	134.000000	3025.000000	2891.000000	2.114111	120.166098	93.000000	23.000000	0.279157	0.811897	-4.565803	1.360076	6.000000	0.000000	5.000000
11	63	The duck was led by the penguin.wav	2	passive	1	2	71.000000	3071.000000	3000.000000	2.277958	96.426434	86.000000	21.000000	0.275575	0.688398	-0.956537	1.279545	11.000000	3.000000	7.000000
11	64	The panda is colored by the monkey.wav	2	passive	2	1	71.000000	2696.000000	2625.000000	1.953748	83.825120	87.000000	12.000000	0.314642	0.766296	-4.073078	1.263169	8.000000	1.000000	7.000000
11	65	The zebra kicks the horse.wav	1	declarative	2	2	87.000000	2430.000000	2343.000000	2.131690	65.074267	74.000000	21.000000	0.254382	0.717414	2.776604	1.080532	11.000000	1.000000	10.000000
11	68	The turtle was carried by the sheep.wav	2	passive	1	2	40.000000	2508.000000	2468.000000	2.271805	123.994002	95.000000	5.000000	0.405282	0.951321	10.987999	1.539729	5.000000	0.000000	5.000000
11	72	The robber shoots the policeman.wav	1	declarative	2	1	57.000000	3557.000000	3500.000000	1.849598	132.577744	90.000000	19.000000	0.354319	0.724170	-5.346636	0.928093	17.000000	2.000000	13.000000
11	73	The skier was crushed by the snowboard.wav	2	passive	1	2	446.000000	3227.000000	2781.000000	1.561771	104.176038	95.000000	10.000000	0.201911	0.776381	4.842508	0.955540	5.000000	1.000000	4.000000
11	77	The grandmother finds the grandson.wav	1	declarative	2	1	71.000000	3415.000000	3344.000000	1.886970	115.593430	90.000000	9.000000	0.351089	0.695542	-0.242777	1.006983	8.000000	2.000000	6.000000
11	81	The hero is killed by the robber.wav	2	passive	2	1	56.000000	2368.000000	2312.000000	1.885404	79.969000	85.000000	12.000000	0.254629	0.633066	8.942754	0.933288	7.000000	1.000000	6.000000
11	83	The elephant was washed by the worker.wav	2	passive	2	1	149.000000	2289.000000	2140.000000	1.882709	83.248861	88.000000	11.000000	0.309939	0.695325	2.908360	1.238806	6.000000	1.000000	4.000000
11	84	The husband was fed by his wife.wav	2	passive	1	2	40.000000	2086.000000	2046.000000	1.964000	91.271671	9.000000	14.000000	0.391109	0.992372	9.083160	0.318061	7.000000	0.000000	7.000000
12	12	The chicken was scared by the crow.wav	2	passive	2	1	119.000000	2135.000000	2016.000000	1.861933	87.419570	82.000000	31.000000	0.343586	0.969963	-9.633332	0.856148	18.000000	1.000000	17.000000
12	18	The kid tickles the mom.wav	1	declarative	1	2	87.000000	2338.000000	2251.000000	2.933851	164.883224	96.000000	24.000000	0.208908	0.649461	-8.439227	2.109435	16.000000	8.000000	8.000000
12	19	The baby touches the hamster.wav	1	declarative	1	2	40.000000	2056.000000	2016.000000	1.423152	88.820754	96.000000	28.000000	0.015043	0.411446	-31.566597	0.979049	25.000000	2.000000	23.000000
12	25	The boxer is punched by the kangeroo.wav	2	passive	2	1	41.000000	1807.000000	1766.000000	1.449322	51.187511	33.000000	26.000000	0.001897	0.515975	26.970874	0.685802	27.000000	1.000000	26.000000
12	26	The hero is killed by the robber.wav	2	passive	2	1	40.000000	1806.000000	1766.000000	2.394785	162.819071	83.000000	30.000000	0.532218	1.264800	-28.037398	1.261252	13.000000	4.000000	9.000000
12	27	The duck was led by the penguin.wav	2	passive	1	2	40.000000	1712.000000	1672.000000	1.530704	55.844281	96.000000	27.000000	0.048511	0.570328	-27.614757	1.251482	14.000000	0.000000	14.000000
12	28	The dog was bitten by the snake.wav	2	passive	1	2	57.000000	1760.000000	1703.000000	1.507806	31.187025	30.000000	26.000000	0.007652	0.506452	-9.403920	0.590371	21.000000	3.000000	17.000000
12	33	The nurse hugs the surgeon.wav	1	declarative	2	1	24.000000	1603.000000	1579.000000	1.485791	53.627262	96.000000	34.000000	0.180495	0.648784	6.881007	1.217654	14.000000	11.000000	3.000000
12	34	The cloud hides the sun.wav	1	declarative	1	2	40.000000	2650.000000	2610.000000	4.677220	243.683083	91.000000	18.000000	0.501441	1.316804	30.095123	3.402412	16.000000	0.000000	16.000000
12	40	The robber shoots the policeman.wav	1	declarative	2	1	40.000000	1571.000000	1531.000000	2.349060	98.417203	81.000000	31.000000	0.512816	1.161435	-20.453522	1.236903	10.000000	1.000000	9.000000
12	41	The tiger lifts the bear.wav	1	declarative	1	2	40.000000	1446.000000	1406.000000	1.449760	35.790367	29.000000	32.000000	0.000003	0.537331	-19.931848	0.661014	25.000000	0.000000	24.000000
12	42	The skier was crushed by the snowboard.wav	2	passive	1	2	40.000000	2024.000000	1984.000000	1.441313	80.278613	2.000000	26.000000	0.000124	0.471737	-35.696341	0.053009	17.000000	0.000000	16.000000
12	47	The zebra kicks the horse.wav	1	declarative	1	2	40.000000	1493.000000	1453.000000	2.473367	197.639181	96.000000	21.000000	0.709266	1.228716	22.658533	1.485171	13.000000	0.000000	13.000000
12	48	The bus hits the motorcycle.wav	1	declarative	2	1	40.000000	1446.000000	1406.000000	1.523679	65.182655	93.000000	19.000000	0.095872	0.617599	23.671263	1.025728	12.000000	0.000000	12.000000
12	50	The husband was fed by his wife.wav	2	passive	1	2	40.000000	2009.000000	1969.000000	1.434677	43.020888	19.000000	12.000000	0.002658	0.476993	-27.149177	0.431464	17.000000	0.000000	17.000000
12	53	The pig was followed by the hen.wav	2	passive	2	1	306.000000	2431.000000	2125.000000	2.572018	165.337260	82.000000	17.000000	0.566176	1.314840	-20.943808	1.261048	8.000000	1.000000	7.000000
12	55	The puppy was licked by the kitten.wav	2	passive	1	2	40.000000	1790.000000	1750.000000	2.417510	132.175766	86.000000	14.000000	0.186042	0.695714	-24.543575	1.440039	12.000000	0.000000	12.000000
12	58	The elephant was washed by the worker.wav	2	passive	2	1	182.000000	1776.000000	1594.000000	2.227131	90.888584	93.000000	20.000000	0.481834	1.133723	-14.079584	1.641111	16.000000	1.000000	15.000000
12	60	The grandmother finds the grandson.wav	1	declarative	2	1	87.000000	2618.000000	2531.000000	2.781516	126.147745	95.000000	26.000000	0.813491	1.201740	-29.569980	2.027877	15.000000	0.000000	15.000000
12	64	The seagull chases the tourist.wav	1	declarative	2	1	40.000000	1506.000000	1466.000000	2.138203	83.529708	85.000000	18.000000	0.595615	1.006782	-18.588478	0.899407	11.000000	0.000000	11.000000
12	69	The boy is pushed by his sister.wav	2	passive	1	2	41.000000	2932.000000	2891.000000	1.777386	82.477429	94.000000	31.000000	0.192101	0.733204	-13.863085	1.312732	14.000000	0.000000	14.000000
12	70	The fish eats the fisherman.wav	1	declarative	2	1	102.000000	1743.000000	1641.000000	1.900920	91.676723	20.000000	24.000000	0.331911	0.879988	-11.139003	0.160017	13.000000	3.000000	10.000000
12	71	The chef was suprised by the mailman.wav	2	passive	1	2	182.000000	2135.000000	1953.000000	2.358602	91.970881	13.000000	17.000000	0.244140	0.870215	4.071759	0.098371	16.000000	1.000000	14.000000
12	72	The bird watches the alligator.wav	1	declarative	1	2	86.000000	1680.000000	1594.000000	2.086316	65.421708	9.000000	19.000000	0.244658	0.866850	-1.535823	0.094769	17.000000	6.000000	10.000000
12	74	The aunt is assisted by her niece.wav	2	passive	2	1	87.000000	2103.000000	2016.000000	1.920297	50.173172	85.000000	28.000000	0.200317	0.824129	-5.339237	1.420151	9.000000	4.000000	4.000000
12	78	The princess slaps the prince.wav	1	declarative	2	1	40.000000	1712.000000	1672.000000	2.062000	106.402154	96.000000	16.000000	0.310024	0.919158	9.018338	1.529989	9.000000	1.000000	7.000000
12	80	The turtle was carried by the sheep.wav	2	passive	1	2	40.000000	1962.000000	1922.000000	2.327266	80.589151	8.000000	12.000000	0.355324	1.106143	30.291696	0.202212	9.000000	0.000000	8.000000
