subject	trial	stimfile	condition	code	response	distractor	initTime	rt	DV_inmot	DV_dist	DV_velmax	DV_velmax_start	DV_acc_flips	DV_ADavg	DV_AUC	DV_initang	DV_dist_maxveloc	DV_ang_tot	DV_angflp_lat	DV_angflp_mot
188	12	The chicken was scared by the crow.wav	2	passive	2	1	31.000000	2263.000000	2232.000000	2.530130	302.737222	1.000000	17.000000	0.000059	0.311637	32.699254	0.000000	15.000000	0.000000	14.000000
188	78	The bus hits the motorcycle.wav	1	declarative	2	1	143.000000	2894.000000	2751.000000	1.907926	246.577669	91.000000	7.000000	0.042613	0.367918	81.454332	0.482759	4.000000	1.000000	3.000000
188	79	The hero is killed by the robber.wav	2	passive	2	1	133.000000	3443.000000	3310.000000	1.692607	256.173204	96.000000	0.000000	0.096695	0.337449	52.990399	0.411741	5.000000	1.000000	4.000000
188	49	The tiger lifts the bear.wav	1	declarative	1	2	641.000000	2393.000000	1752.000000	1.799433	223.454751	96.000000	9.000000	0.236078	0.582214	-89.556715	0.682159	5.000000	1.000000	3.000000
188	29	The nurse hugs the surgeon.wav	1	declarative	2	1	264.000000	5453.000000	5189.000000	1.583185	141.148274	92.000000	33.000000	0.211980	0.333804	35.680479	0.297804	23.000000	5.000000	17.000000
188	77	The fish eats the fisherman.wav	1	declarative	2	1	414.000000	2750.000000	2336.000000	1.513458	200.506359	91.000000	13.000000	0.265155	0.330098	50.345657	0.244718	15.000000	13.000000	1.000000
188	40	The elephant was washed by the worker.wav	2	passive	2	1	2889.000000	2982.000000	93.000000	1.332692	266.538342	96.000000	-1.000000	0.316242	0.444197	36.171802	0.000000	2.000000	1.000000	0.000000
188	64	The panda is colored by the monkey.wav	2	passive	2	1	169.000000	2814.000000	2645.000000	1.336319	179.291904	96.000000	5.000000	0.144110	0.506392	32.203925	0.439860	10.000000	1.000000	8.000000
188	60	The princess slaps the prince.wav	1	declarative	2	1	1169.000000	2109.000000	940.000000	1.662270	265.009246	94.000000	10.000000	0.442840	0.481994	34.206445	0.178067	7.000000	6.000000	1.000000
188	33	The skier was crushed by the snowboard.wav	2	passive	1	2	589.000000	3305.000000	2716.000000	1.519457	292.884492	96.000000	5.000000	0.328846	0.532358	-21.415598	0.055034	1.000000	1.000000	0.000000
188	54	The pig was followed by the hen.wav	2	passive	2	1	379.000000	3050.000000	2671.000000	1.550853	240.103925	96.000000	22.000000	0.350740	0.538177	28.359919	0.350334	34.000000	20.000000	13.000000
188	74	The robber shoots the policeman.wav	1	declarative	2	1	374.000000	3462.000000	3088.000000	1.423615	165.246022	96.000000	3.000000	0.187875	0.570261	21.957485	0.597385	12.000000	3.000000	7.000000
188	41	The seagull chases the tourist.wav	1	declarative	2	1	103.000000	3665.000000	3562.000000	1.438197	214.834243	96.000000	5.000000	0.219884	0.561984	28.793433	0.364026	12.000000	3.000000	8.000000
188	27	The baby touches the hamster.wav	1	declarative	1	2	598.000000	2625.000000	2027.000000	1.671528	285.935514	96.000000	3.000000	0.309888	0.702291	5.099364	0.241851	9.000000	6.000000	3.000000
188	62	The chef was suprised by the mailman.wav	2	passive	1	2	389.000000	3517.000000	3128.000000	1.701410	285.749721	96.000000	5.000000	0.467579	0.746979	40.781230	0.272661	7.000000	5.000000	2.000000
188	53	The boy is pushed by his sister.wav	2	passive	1	2	483.000000	2715.000000	2232.000000	1.725588	280.844207	96.000000	17.000000	0.494021	0.755245	66.401054	0.321367	9.000000	0.000000	8.000000
188	42	The puppy was licked by the kitten.wav	2	passive	1	2	73.000000	2782.000000	2709.000000	1.744665	279.781830	96.000000	7.000000	0.544367	0.745830	52.778730	0.345756	8.000000	5.000000	2.000000
188	52	The kid tickles the mom.wav	1	declarative	1	2	233.000000	2763.000000	2530.000000	1.705890	171.210625	87.000000	5.000000	0.355581	0.680232	18.371674	0.346626	11.000000	5.000000	6.000000
188	57	The husband was fed by his wife.wav	2	passive	1	2	438.000000	2563.000000	2125.000000	1.495954	206.083147	96.000000	1.000000	0.370336	0.891031	19.075761	0.465538	3.000000	2.000000	1.000000
188	31	The daughter kisses the king.wav	1	declarative	1	2	319.000000	2633.000000	2314.000000	1.663077	141.141641	96.000000	9.000000	0.414865	0.759512	23.612686	0.957369	5.000000	2.000000	3.000000
188	24	The bird watches the alligator.wav	1	declarative	1	2	63.000000	3250.000000	3187.000000	3.217785	242.976513	81.000000	23.000000	0.237844	0.769675	15.169255	1.206175	14.000000	1.000000	13.000000
188	15	The dog was bitten by the snake.wav	2	passive	1	2	299.000000	2219.000000	1920.000000	1.700714	213.313240	96.000000	23.000000	0.349172	0.840228	18.167434	0.634148	17.000000	14.000000	3.000000
188	76	The cat attacks the fireman.wav	1	declarative	1	2	393.000000	2322.000000	1929.000000	1.988390	322.113173	96.000000	17.000000	0.517144	0.862342	62.938618	0.377824	13.000000	0.000000	13.000000
188	21	The boxer is punched by the kangeroo.wav	2	passive	2	1	73.000000	2533.000000	2460.000000	1.919169	147.178444	86.000000	24.000000	0.280907	0.635030	10.985355	0.743943	24.000000	13.000000	11.000000
188	47	The zebra kicks the horse.wav	1	declarative	1	2	99.000000	2233.000000	2134.000000	1.693064	263.747148	96.000000	15.000000	0.520304	0.781634	17.696219	0.374328	6.000000	3.000000	3.000000
188	32	The cloud hides the sun.wav	1	declarative	1	2	2250.000000	6197.000000	3947.000000	2.686077	303.711773	94.000000	22.000000	0.292444	0.775385	-11.283056	0.772410	19.000000	3.000000	16.000000
188	58	The turtle was carried by the sheep.wav	2	passive	1	2	249.000000	3927.000000	3678.000000	1.984577	279.763371	96.000000	1.000000	0.638957	0.996652	36.051442	0.585761	3.000000	0.000000	3.000000
277	67	The dog was bitten by the snake.wav	2	passive	1	2	17.000000	3825.000000	3808.000000	9.442686	194.903260	29.000000	34.000000	0.049779	1.234015	37.078214	3.500799	20.000000	0.000000	20.000000
277	68	The baby touches the hamster.wav	1	declarative	1	2	17.000000	5699.000000	5682.000000	11.495515	229.566013	96.000000	47.000000	0.243450	1.236610	4.611560	10.347685	24.000000	0.000000	24.000000
277	78	The tiger lifts the bear.wav	1	declarative	1	2	32.000000	5085.000000	5053.000000	7.953432	204.259689	8.000000	35.000000	0.083634	1.087701	-7.385030	0.820797	20.000000	1.000000	19.000000
277	28	The cat attacks the fireman.wav	1	declarative	1	2	81.000000	2620.000000	2539.000000	4.214413	116.630371	4.000000	30.000000	0.168881	1.098093	5.403791	0.029360	9.000000	2.000000	6.000000
277	65	The bird watches the alligator.wav	1	declarative	1	2	87.000000	3284.000000	3197.000000	8.612490	197.344729	96.000000	28.000000	0.173593	1.168410	-24.995542	7.625766	14.000000	2.000000	12.000000
277	64	The hero is killed by the robber.wav	2	passive	2	1	18.000000	19844.000000	19826.000000	29.648800	506.775687	94.000000	37.000000	0.426140	-0.115918	-11.970610	26.181912	67.000000	1.000000	64.000000
277	59	The cloud hides the sun.wav	1	declarative	1	2	47.000000	2157.000000	2110.000000	9.515772	236.671468	62.000000	24.000000	0.105495	1.253387	17.539257	5.140410	12.000000	1.000000	10.000000
277	70	The husband was fed by his wife.wav	2	passive	1	2	166.000000	5553.000000	5387.000000	8.732101	178.293736	6.000000	44.000000	0.179698	1.148383	39.264636	0.386577	17.000000	1.000000	16.000000
277	83	The daughter kisses the king.wav	1	declarative	1	2	281.000000	3959.000000	3678.000000	2.063051	68.449630	26.000000	30.000000	0.183017	0.936244	11.350719	0.022703	4.000000	2.000000	2.000000
277	57	The boy is pushed by his sister.wav	2	passive	1	2	66.000000	3216.000000	3150.000000	9.469027	170.279851	15.000000	29.000000	0.148790	1.627119	46.808739	1.236549	13.000000	1.000000	12.000000
277	56	The chef was suprised by the mailman.wav	2	passive	1	2	102.000000	4952.000000	4850.000000	12.676629	205.200262	28.000000	41.000000	0.152012	1.787002	2.435535	4.036580	20.000000	1.000000	18.000000
277	79	The puppy was licked by the kitten.wav	2	passive	1	2	33.000000	6589.000000	6556.000000	6.711861	237.995602	2.000000	48.000000	0.198029	1.012531	0.637559	0.141408	27.000000	0.000000	26.000000
277	74	The chicken was scared by the crow.wav	2	passive	2	1	98.000000	4730.000000	4632.000000	12.309825	220.824342	8.000000	41.000000	0.359858	-0.000082	24.257432	0.766358	24.000000	1.000000	23.000000
277	62	The fish eats the fisherman.wav	1	declarative	2	1	206.000000	9006.000000	8800.000000	18.003208	325.358709	96.000000	46.000000	0.405258	-0.462688	-11.529959	16.376415	32.000000	0.000000	31.000000
277	38	The seagull chases the tourist.wav	1	declarative	2	1	16.000000	3790.000000	3774.000000	2.808453	170.269355	96.000000	25.000000	0.485581	1.030854	-11.218685	1.957106	20.000000	3.000000	16.000000
277	80	The turtle was carried by the sheep.wav	2	passive	1	2	275.000000	2654.000000	2379.000000	6.353702	137.624565	81.000000	27.000000	0.334448	1.230114	0.353517	4.525048	13.000000	1.000000	11.000000
277	21	The pig was followed by the hen.wav	2	passive	2	1	75.000000	2206.000000	2131.000000	3.565347	159.125317	93.000000	20.000000	0.411572	0.741153	-17.322614	2.658367	11.000000	1.000000	10.000000
277	85	The nurse hugs the surgeon.wav	1	declarative	2	1	16.000000	3301.000000	3285.000000	10.517597	241.867133	10.000000	36.000000	0.383405	0.096639	-16.208171	0.724840	17.000000	0.000000	16.000000
277	44	The duck was led by the penguin.wav	2	passive	1	2	241.000000	8449.000000	8208.000000	21.320442	340.691406	14.000000	44.000000	0.398471	2.765742	-0.968005	2.589392	29.000000	0.000000	28.000000
277	52	The grandmother finds the grandson.wav	1	declarative	2	1	105.000000	3182.000000	3077.000000	9.648519	296.207972	96.000000	34.000000	0.546193	0.089489	30.457825	8.167479	14.000000	0.000000	13.000000
277	14	The aunt is assisted by her niece.wav	2	passive	2	1	17.000000	2721.000000	2704.000000	3.857482	239.713506	4.000000	22.000000	0.421640	0.976734	-0.043220	0.099044	12.000000	1.000000	11.000000
277	71	The elephant was washed by the worker.wav	2	passive	2	1	17.000000	3938.000000	3921.000000	13.754461	254.706243	96.000000	45.000000	0.488042	-0.354840	12.278230	12.480929	19.000000	0.000000	18.000000
277	51	The princess slaps the prince.wav	1	declarative	2	1	95.000000	2473.000000	2378.000000	8.823276	231.726955	96.000000	31.000000	0.382820	-0.245625	24.480074	7.664642	13.000000	2.000000	11.000000
277	84	The robber shoots the policeman.wav	1	declarative	2	1	18.000000	5522.000000	5504.000000	10.292486	359.546048	78.000000	40.000000	0.526634	0.332589	4.284445	5.586676	22.000000	0.000000	21.000000
277	41	The panda is colored by the monkey.wav	2	passive	2	1	187.000000	4698.000000	4511.000000	6.898279	299.647193	90.000000	35.000000	0.473858	0.645349	-38.679804	4.804098	17.000000	1.000000	16.000000
277	15	The zebra kicks the horse.wav	1	declarative	1	2	18.000000	3403.000000	3385.000000	6.420834	229.936409	94.000000	29.000000	0.352476	0.783837	4.311660	5.015462	7.000000	0.000000	6.000000
277	77	The kid tickles the mom.wav	1	declarative	1	2	96.000000	10622.000000	10526.000000	14.633073	350.737135	10.000000	43.000000	0.505943	1.112354	0.684155	1.621178	30.000000	0.000000	30.000000
277	18	The boxer is punched by the kangeroo.wav	2	passive	2	1	56.000000	2585.000000	2529.000000	4.882902	208.056751	89.000000	28.000000	0.530555	0.878350	-10.147737	3.201520	7.000000	2.000000	5.000000
522	36	The dog was bitten by the snake.wav	2	passive	1	2	83.000000	2878.000000	2795.000000	1.552532	105.807172	94.000000	27.000000	0.242437	0.531482	-16.929870	0.863270	28.000000	5.000000	23.000000
522	58	The grandmother finds the grandson.wav	1	declarative	2	1	373.000000	4507.000000	4134.000000	1.549132	137.276108	94.000000	14.000000	0.325515	0.551837	24.443955	0.811521	7.000000	1.000000	6.000000
522	60	The husband was fed by his wife.wav	2	passive	1	2	73.000000	3015.000000	2942.000000	1.555285	123.794573	95.000000	35.000000	0.188359	0.503789	-22.771018	0.871146	8.000000	2.000000	6.000000
522	35	The bird watches the alligator.wav	1	declarative	1	2	273.000000	3609.000000	3336.000000	1.554768	149.071783	90.000000	13.000000	0.326315	0.517809	-18.002912	0.346255	15.000000	10.000000	5.000000
522	70	The turtle was carried by the sheep.wav	2	passive	1	2	255.000000	3342.000000	3087.000000	1.643224	174.880274	92.000000	20.000000	0.359136	0.566798	-15.034630	0.381601	18.000000	16.000000	2.000000
522	15	The kid tickles the mom.wav	1	declarative	1	2	153.000000	3424.000000	3271.000000	2.416877	104.061267	90.000000	39.000000	0.118526	0.505670	-22.660345	1.789964	19.000000	2.000000	17.000000
522	62	The cat attacks the fireman.wav	1	declarative	1	2	324.000000	2635.000000	2311.000000	1.529264	120.105837	88.000000	9.000000	0.284018	0.549360	-25.146923	0.392647	7.000000	5.000000	2.000000
522	59	The chef was suprised by the mailman.wav	2	passive	1	2	393.000000	2939.000000	2546.000000	1.529919	49.572353	71.000000	29.000000	0.137372	0.526576	-1.868285	0.795915	15.000000	4.000000	11.000000
522	80	The zebra kicks the horse.wav	1	declarative	1	2	143.000000	2326.000000	2183.000000	1.588515	61.291278	94.000000	34.000000	0.161163	0.500990	-7.403116	1.232582	10.000000	3.000000	7.000000
522	66	The duck was led by the penguin.wav	2	passive	1	2	83.000000	3030.000000	2947.000000	1.762697	139.081037	94.000000	22.000000	0.307973	0.618701	3.654026	0.968747	26.000000	11.000000	15.000000
522	55	The cloud hides the sun.wav	1	declarative	1	2	203.000000	2248.000000	2045.000000	1.524818	71.692141	85.000000	25.000000	0.287591	0.602958	-3.332383	0.557261	8.000000	7.000000	1.000000
522	49	The chicken was scared by the crow.wav	2	passive	2	1	273.000000	3619.000000	3346.000000	1.536701	133.966359	91.000000	32.000000	0.301047	0.649853	-3.076547	0.585763	27.000000	9.000000	18.000000
522	61	The princess slaps the prince.wav	1	declarative	2	1	223.000000	3502.000000	3279.000000	1.623459	149.371760	90.000000	24.000000	0.371481	0.578605	-13.328840	0.442835	20.000000	19.000000	1.000000
522	44	The pig was followed by the hen.wav	2	passive	2	1	198.000000	2426.000000	2228.000000	1.562031	112.014217	87.000000	33.000000	0.205791	0.620813	21.451963	0.640327	21.000000	2.000000	19.000000
522	72	The boy is pushed by his sister.wav	2	passive	1	2	623.000000	2414.000000	1791.000000	1.674025	212.330370	88.000000	9.000000	0.283830	0.694190	1.223014	0.403873	10.000000	7.000000	1.000000
522	31	The tiger lifts the bear.wav	1	declarative	1	2	113.000000	3202.000000	3089.000000	1.947113	152.399454	95.000000	28.000000	0.151532	0.523661	12.052239	1.143931	17.000000	3.000000	14.000000
522	56	The puppy was licked by the kitten.wav	2	passive	1	2	236.000000	6794.000000	6558.000000	1.552558	202.484755	95.000000	37.000000	0.303562	0.692555	-7.714946	0.398307	18.000000	17.000000	0.000000
522	64	The baby touches the hamster.wav	1	declarative	1	2	76.000000	3689.000000	3613.000000	1.619778	83.541278	77.000000	27.000000	0.191493	0.676076	-13.090013	1.053348	14.000000	12.000000	2.000000
522	75	The fish eats the fisherman.wav	1	declarative	2	1	1568.000000	2745.000000	1177.000000	1.646698	191.470046	91.000000	11.000000	0.303773	0.668479	-11.130968	0.469670	15.000000	12.000000	3.000000
522	57	The boxer is punched by the kangeroo.wav	2	passive	2	1	478.000000	2852.000000	2374.000000	1.626864	136.043153	87.000000	41.000000	0.308455	0.742597	-4.772795	0.435661	5.000000	5.000000	0.000000
522	27	The nurse hugs the surgeon.wav	1	declarative	2	1	243.000000	2988.000000	2745.000000	1.818697	152.585633	89.000000	29.000000	0.369486	0.691340	-21.407879	0.537869	7.000000	4.000000	2.000000
522	33	The daughter kisses the king.wav	1	declarative	1	2	257.000000	3698.000000	3441.000000	2.051650	121.066492	95.000000	30.000000	0.281317	0.717929	-89.476287	1.374025	13.000000	1.000000	12.000000
522	16	The elephant was washed by the worker.wav	2	passive	2	1	113.000000	2878.000000	2765.000000	1.786708	152.342481	91.000000	27.000000	0.356316	0.771973	-15.836845	0.754701	19.000000	5.000000	13.000000
522	46	The aunt is assisted by her niece.wav	2	passive	2	1	214.000000	3654.000000	3440.000000	1.709734	85.267720	81.000000	28.000000	0.317601	0.661757	-13.514333	0.619784	11.000000	3.000000	7.000000
522	83	The hero is killed by the robber.wav	2	passive	2	1	348.000000	2960.000000	2612.000000	1.715436	183.511895	96.000000	28.000000	0.390494	0.665497	10.630043	0.797876	10.000000	3.000000	7.000000
522	37	The bus hits the motorcycle.wav	1	declarative	2	1	403.000000	3087.000000	2684.000000	1.861405	187.552429	88.000000	27.000000	0.361460	0.716694	-13.218363	0.676110	23.000000	4.000000	19.000000
522	53	The seagull chases the tourist.wav	1	declarative	2	1	73.000000	4049.000000	3976.000000	1.815718	188.892261	93.000000	22.000000	0.497994	0.878546	-38.247846	0.654846	14.000000	2.000000	11.000000
522	84	The panda is colored by the monkey.wav	2	passive	2	1	357.000000	3889.000000	3532.000000	1.875892	170.756564	92.000000	15.000000	0.494488	0.688392	-16.279446	0.534348	12.000000	3.000000	9.000000
522	29	The skier was crushed by the snowboard.wav	2	passive	1	2	193.000000	5499.000000	5306.000000	1.746062	173.503354	96.000000	20.000000	0.436362	0.799266	35.594456	0.878546	13.000000	1.000000	12.000000
522	79	The robber shoots the policeman.wav	1	declarative	2	1	187.000000	2588.000000	2401.000000	1.975276	133.783156	94.000000	26.000000	0.504868	0.830066	-24.551383	1.197901	13.000000	3.000000	10.000000
909	83	The bird watches the alligator.wav	1	declarative	1	2	139.000000	2626.000000	2487.000000	1.745698	146.976788	7.000000	7.000000	0.150521	0.756551	-2.176138	0.083101	4.000000	0.000000	4.000000
909	81	The chef was suprised by the mailman.wav	2	passive	1	2	99.000000	2736.000000	2637.000000	1.736659	147.535568	96.000000	9.000000	0.312832	0.798152	2.772157	0.998982	11.000000	2.000000	8.000000
909	52	The boy is pushed by his sister.wav	2	passive	1	2	138.000000	2918.000000	2780.000000	1.976971	263.456050	9.000000	7.000000	0.095105	0.757214	-14.539903	0.225393	8.000000	2.000000	5.000000
909	74	The zebra kicks the horse.wav	1	declarative	1	2	93.000000	2201.000000	2108.000000	1.841338	244.819766	5.000000	1.000000	0.206727	0.914457	5.056816	0.020986	6.000000	2.000000	4.000000
909	55	The cat attacks the fireman.wav	1	declarative	1	2	74.000000	1984.000000	1910.000000	2.007462	248.169480	6.000000	5.000000	0.159619	0.879184	-9.455505	0.308947	9.000000	1.000000	7.000000
909	75	The pig was followed by the hen.wav	2	passive	2	1	239.000000	2676.000000	2437.000000	1.662342	145.957771	96.000000	11.000000	0.330776	0.911854	-4.639665	0.932553	9.000000	2.000000	7.000000
909	51	The duck was led by the penguin.wav	2	passive	1	2	103.000000	2884.000000	2781.000000	2.019846	263.613256	5.000000	3.000000	0.175659	0.862931	-1.439525	0.146717	3.000000	1.000000	2.000000
909	48	The nurse hugs the surgeon.wav	1	declarative	2	1	104.000000	2245.000000	2141.000000	2.031439	97.742153	14.000000	17.000000	0.242738	1.025085	-2.693951	0.410243	14.000000	3.000000	10.000000
909	84	The chicken was scared by the crow.wav	2	passive	2	1	214.000000	1994.000000	1780.000000	1.790321	116.188004	96.000000	11.000000	0.268508	0.940203	2.504435	1.209381	7.000000	1.000000	5.000000
909	38	The princess slaps the prince.wav	1	declarative	2	1	159.000000	1829.000000	1670.000000	1.966014	118.226123	24.000000	11.000000	0.270193	0.994412	0.000000	0.439348	8.000000	2.000000	6.000000
909	24	The baby touches the hamster.wav	1	declarative	1	2	49.000000	1819.000000	1770.000000	2.079237	216.181970	8.000000	3.000000	0.236801	0.901299	-8.474933	0.354414	6.000000	1.000000	5.000000
909	40	The fish eats the fisherman.wav	1	declarative	2	1	48.000000	2111.000000	2063.000000	2.152643	112.240190	96.000000	10.000000	0.275220	1.011844	-6.094289	1.591442	10.000000	2.000000	8.000000
909	47	The grandmother finds the grandson.wav	1	declarative	2	1	151.000000	3043.000000	2892.000000	2.203759	251.336652	9.000000	3.000000	0.224444	0.733041	15.269918	0.236485	4.000000	0.000000	3.000000
909	68	The tiger lifts the bear.wav	1	declarative	1	2	49.000000	3400.000000	3351.000000	2.053422	147.223490	5.000000	7.000000	0.304963	1.006458	16.439605	0.237738	3.000000	1.000000	2.000000
909	64	The boxer is punched by the kangeroo.wav	2	passive	2	1	189.000000	2836.000000	2647.000000	2.011245	185.231940	7.000000	3.000000	0.375305	1.024183	-10.033624	0.021260	3.000000	1.000000	0.000000
909	62	The turtle was carried by the sheep.wav	2	passive	1	2	143.000000	2735.000000	2592.000000	2.165707	270.391338	10.000000	7.000000	0.231764	1.056842	11.808457	0.111878	6.000000	3.000000	2.000000
909	50	The elephant was washed by the worker.wav	2	passive	2	1	83.000000	2163.000000	2080.000000	2.309734	182.610486	11.000000	13.000000	0.317526	0.918769	2.025174	0.422351	9.000000	2.000000	6.000000
909	30	The cloud hides the sun.wav	1	declarative	1	2	79.000000	2227.000000	2148.000000	2.193186	218.326166	7.000000	5.000000	0.298281	0.936274	-2.579948	0.321304	6.000000	1.000000	3.000000
909	12	The dog was bitten by the snake.wav	2	passive	1	2	178.000000	2358.000000	2180.000000	2.228323	277.069237	10.000000	3.000000	0.326167	1.078954	3.241306	0.123324	7.000000	1.000000	5.000000
909	43	The daughter kisses the king.wav	1	declarative	1	2	47.000000	2258.000000	2211.000000	2.240413	212.438050	9.000000	12.000000	0.335808	0.980209	-2.960001	0.404308	5.000000	2.000000	3.000000
909	23	The robber shoots the policeman.wav	1	declarative	2	1	119.000000	1969.000000	1850.000000	2.241080	144.512282	96.000000	13.000000	0.371006	1.074646	-19.285166	1.518518	4.000000	4.000000	0.000000
909	57	The seagull chases the tourist.wav	1	declarative	2	1	49.000000	2963.000000	2914.000000	2.303137	181.615411	2.000000	14.000000	0.341593	0.930440	0.279831	0.023602	17.000000	2.000000	15.000000
909	37	The puppy was licked by the kitten.wav	2	passive	1	2	89.000000	2159.000000	2070.000000	2.227222	163.825511	12.000000	8.000000	0.311573	1.021433	-0.394817	0.665483	6.000000	0.000000	5.000000
909	53	The hero is killed by the robber.wav	2	passive	2	1	119.000000	2326.000000	2207.000000	2.206684	139.581891	96.000000	7.000000	0.374947	0.995284	1.006189	1.508775	8.000000	1.000000	6.000000
909	44	The bus hits the motorcycle.wav	1	declarative	2	1	89.000000	2926.000000	2837.000000	2.675988	184.758369	96.000000	10.000000	0.316469	0.923178	0.687991	1.752196	10.000000	0.000000	8.000000
1222	74	The elephant was washed by the worker.wav	2	passive	2	1	808.000000	2644.000000	1836.000000	1.567981	54.759355	57.000000	23.000000	0.070161	0.470410	27.878546	0.896437	10.000000	2.000000	7.000000
1222	73	The robber shoots the policeman.wav	1	declarative	2	1	869.000000	2713.000000	1844.000000	1.496353	70.876489	52.000000	21.000000	0.085903	0.440895	28.734309	0.409523	11.000000	6.000000	5.000000
1222	22	The seagull chases the tourist.wav	1	declarative	2	1	269.000000	3160.000000	2891.000000	1.558140	56.417565	54.000000	32.000000	0.105108	0.594412	19.553898	0.601958	21.000000	4.000000	16.000000
1222	34	The cat attacks the fireman.wav	1	declarative	1	2	459.000000	2239.000000	1780.000000	1.638546	67.647289	24.000000	20.000000	0.186494	0.687213	-8.665865	0.189352	9.000000	1.000000	8.000000
1222	33	The zebra kicks the horse.wav	1	declarative	1	2	279.000000	1789.000000	1510.000000	1.614376	46.636487	82.000000	28.000000	0.208060	0.750640	-1.978385	1.042329	11.000000	3.000000	7.000000
1222	15	The chicken was scared by the crow.wav	2	passive	2	1	199.000000	2574.000000	2375.000000	1.768959	42.472128	87.000000	35.000000	0.273333	0.899776	2.463380	1.278024	8.000000	3.000000	5.000000
1222	70	The bus hits the motorcycle.wav	1	declarative	2	1	183.000000	2401.000000	2218.000000	2.354160	45.190571	48.000000	31.000000	0.096450	0.508782	25.342425	0.897679	10.000000	4.000000	5.000000
1222	66	The pig was followed by the hen.wav	2	passive	2	1	389.000000	2769.000000	2380.000000	1.851421	62.731323	23.000000	25.000000	0.310133	0.900485	2.950056	0.177588	11.000000	4.000000	7.000000
1222	45	The husband was fed by his wife.wav	2	passive	1	2	389.000000	3359.000000	2970.000000	1.923867	58.084378	18.000000	22.000000	0.360773	1.012613	22.419670	0.184553	9.000000	3.000000	5.000000
1222	41	The panda is colored by the monkey.wav	2	passive	2	1	354.000000	2454.000000	2100.000000	2.120652	66.567759	66.000000	27.000000	0.377699	0.905110	-25.868516	1.030567	10.000000	2.000000	7.000000
1222	56	The dog was bitten by the snake.wav	2	passive	1	2	529.000000	2359.000000	1830.000000	1.960729	76.676094	88.000000	23.000000	0.301203	0.982085	9.445520	1.515345	11.000000	3.000000	7.000000
1222	18	The boxer is punched by the kangeroo.wav	2	passive	2	1	49.000000	3647.000000	3598.000000	2.073601	76.247809	9.000000	29.000000	0.187988	0.918363	3.549163	0.125090	12.000000	2.000000	9.000000
1222	16	The cloud hides the sun.wav	1	declarative	1	2	244.000000	2654.000000	2410.000000	1.867026	37.925341	76.000000	37.000000	0.290354	0.940403	2.904976	1.084253	15.000000	6.000000	8.000000
1222	30	The chef was suprised by the mailman.wav	2	passive	1	2	1059.000000	4749.000000	3690.000000	2.167266	91.198855	27.000000	20.000000	0.336609	1.098270	10.409144	0.242782	8.000000	1.000000	7.000000
1222	44	The nurse hugs the surgeon.wav	1	declarative	2	1	459.000000	2692.000000	2233.000000	2.240508	57.491588	88.000000	22.000000	0.291810	0.899778	16.360602	1.601737	12.000000	1.000000	10.000000
1222	76	The puppy was licked by the kitten.wav	2	passive	1	2	528.000000	2589.000000	2061.000000	2.255914	76.506906	26.000000	23.000000	0.359838	1.044098	7.101453	0.209685	7.000000	2.000000	5.000000
1222	85	The tiger lifts the bear.wav	1	declarative	1	2	323.000000	3266.000000	2943.000000	3.836523	212.346404	90.000000	27.000000	0.218107	0.757386	-24.092848	2.681923	13.000000	1.000000	12.000000
1222	37	The grandmother finds the grandson.wav	1	declarative	2	1	598.000000	3004.000000	2406.000000	2.645632	86.896597	87.000000	30.000000	0.418710	1.213875	-31.696474	1.682219	7.000000	3.000000	2.000000
1222	47	The duck was led by the penguin.wav	2	passive	1	2	253.000000	2510.000000	2257.000000	2.498936	60.048778	23.000000	26.000000	0.394804	1.181011	4.672740	0.135414	7.000000	4.000000	3.000000
1222	62	The hero is killed by the robber.wav	2	passive	2	1	159.000000	3230.000000	3071.000000	2.506274	61.328186	84.000000	24.000000	0.381272	1.166388	8.107095	1.872101	4.000000	3.000000	1.000000
1222	84	The bird watches the alligator.wav	1	declarative	1	2	143.000000	3156.000000	3013.000000	3.407240	162.237448	88.000000	29.000000	0.543130	1.262808	-7.760684	2.360032	8.000000	1.000000	7.000000
1222	68	The kid tickles the mom.wav	1	declarative	1	2	224.000000	3325.000000	3101.000000	3.914264	91.387861	84.000000	29.000000	0.406782	0.941589	-8.116799	2.810040	7.000000	2.000000	3.000000
1222	80	The turtle was carried by the sheep.wav	2	passive	1	2	309.000000	2934.000000	2625.000000	3.138887	167.477104	86.000000	22.000000	0.572662	1.097642	-20.806272	1.773460	10.000000	1.000000	9.000000
1639	41	The panda is colored by the monkey.wav	2	passive	2	1	829.000000	2907.000000	2078.000000	1.758850	346.920174	96.000000	9.000000	0.488516	0.244295	61.062014	0.024249	10.000000	9.000000	0.000000
1639	61	The princess slaps the prince.wav	1	declarative	2	1	31.000000	1893.000000	1862.000000	1.653414	213.850132	96.000000	25.000000	0.250412	0.470884	89.568726	0.584163	11.000000	0.000000	10.000000
1639	22	The skier was crushed by the snowboard.wav	2	passive	1	2	3102.000000	3196.000000	94.000000	1.744439	348.887829	96.000000	0.000000	0.475456	0.362344	-45.504951	0.000000	2.000000	0.000000	1.000000
1639	18	The boxer is punched by the kangeroo.wav	2	passive	2	1	281.000000	2481.000000	2200.000000	1.791680	306.945228	96.000000	2.000000	0.467134	0.421678	0.000000	0.256954	1.000000	0.000000	1.000000
1639	15	The zebra kicks the horse.wav	1	declarative	1	2	739.000000	4198.000000	3459.000000	1.744711	286.827672	92.000000	2.000000	0.401481	0.423280	0.000000	0.230600	2.000000	0.000000	2.000000
1639	80	The turtle was carried by the sheep.wav	2	passive	1	2	159.000000	2560.000000	2401.000000	1.194351	223.144436	96.000000	6.000000	0.337038	0.446327	-46.842701	0.078629	4.000000	3.000000	0.000000
1639	65	The bird watches the alligator.wav	1	declarative	1	2	248.000000	2329.000000	2081.000000	1.168360	231.205509	96.000000	9.000000	0.361669	0.505035	-38.990084	0.012332	6.000000	6.000000	0.000000
1639	59	The cloud hides the sun.wav	1	declarative	1	2	308.000000	2585.000000	2277.000000	1.321391	254.878590	96.000000	9.000000	0.281351	0.518564	-25.684168	0.046998	8.000000	6.000000	0.000000
1639	52	The grandmother finds the grandson.wav	1	declarative	2	1	49.000000	3103.000000	3054.000000	1.277562	244.647511	96.000000	21.000000	0.380112	0.525895	30.696107	0.054324	9.000000	8.000000	0.000000
1639	83	The daughter kisses the king.wav	1	declarative	1	2	89.000000	2119.000000	2030.000000	1.548972	309.014352	96.000000	0.000000	0.458062	0.519770	-35.268065	0.003900	3.000000	2.000000	0.000000
1639	62	The fish eats the fisherman.wav	1	declarative	2	1	1410.000000	1740.000000	330.000000	1.400182	276.842983	96.000000	3.000000	0.306440	0.523766	26.282268	0.015967	6.000000	4.000000	1.000000
1639	85	The nurse hugs the surgeon.wav	1	declarative	2	1	48.000000	2448.000000	2400.000000	1.544047	300.127940	96.000000	9.000000	0.466806	0.533207	29.019083	0.043407	5.000000	5.000000	0.000000
1639	78	The tiger lifts the bear.wav	1	declarative	1	2	63.000000	1673.000000	1610.000000	0.971420	191.127236	96.000000	8.000000	0.189558	0.565957	-19.282144	0.015784	4.000000	4.000000	0.000000
1639	38	The seagull chases the tourist.wav	1	declarative	2	1	379.000000	2339.000000	1960.000000	1.262748	245.807877	96.000000	22.000000	0.284518	0.553467	22.336551	0.033708	16.000000	16.000000	0.000000
1639	79	The puppy was licked by the kitten.wav	2	passive	1	2	1399.000000	2319.000000	920.000000	1.331491	265.918138	96.000000	1.000000	0.425131	0.494632	-41.760088	0.001900	2.000000	1.000000	0.000000
1639	74	The chicken was scared by the crow.wav	2	passive	2	1	2425.000000	2475.000000	50.000000	1.322550	264.509927	96.000000	-1.000000	0.407817	0.508609	38.551248	0.000000	1.000000	1.000000	0.000000
1639	28	The cat attacks the fireman.wav	1	declarative	1	2	479.000000	2276.000000	1797.000000	1.297770	258.393928	96.000000	3.000000	0.298601	0.577977	-15.942925	0.005800	1.000000	0.000000	0.000000
1639	67	The dog was bitten by the snake.wav	2	passive	1	2	219.000000	2404.000000	2185.000000	0.923569	182.032798	96.000000	9.000000	0.268162	0.535727	-30.253282	0.013405	9.000000	8.000000	0.000000
1639	70	The husband was fed by his wife.wav	2	passive	1	2	539.000000	2099.000000	1560.000000	1.270068	248.665143	96.000000	9.000000	0.400078	0.518521	-40.936255	0.026743	5.000000	5.000000	0.000000
1639	64	The hero is killed by the robber.wav	2	passive	2	1	213.000000	2372.000000	2159.000000	1.577726	308.983471	96.000000	21.000000	0.481580	0.542914	29.842844	0.032809	8.000000	8.000000	0.000000
1639	68	The baby touches the hamster.wav	1	declarative	1	2	1898.000000	2008.000000	110.000000	1.568138	282.807576	96.000000	0.000000	0.389349	0.606082	-14.484253	0.154100	0.000000	0.000000	0.000000
1639	57	The boy is pushed by his sister.wav	2	passive	1	2	2467.000000	2530.000000	63.000000	1.394331	278.866284	96.000000	-1.000000	0.335526	0.575578	-22.967075	0.000000	1.000000	1.000000	0.000000
1639	21	The pig was followed by the hen.wav	2	passive	2	1	31.000000	2784.000000	2753.000000	1.313350	235.159263	96.000000	3.000000	0.368482	0.565747	27.842640	0.137554	4.000000	3.000000	0.000000
1639	71	The elephant was washed by the worker.wav	2	passive	2	1	475.000000	2425.000000	1950.000000	1.409504	232.406325	96.000000	1.000000	0.354206	0.607602	0.784825	0.247473	2.000000	0.000000	1.000000
1639	56	The chef was suprised by the mailman.wav	2	passive	1	2	299.000000	2029.000000	1730.000000	1.694570	275.390327	96.000000	4.000000	0.263355	0.718384	-8.348996	0.317618	6.000000	1.000000	5.000000
1639	14	The aunt is assisted by her niece.wav	2	passive	2	1	129.000000	3603.000000	3474.000000	1.559220	223.731040	96.000000	3.000000	0.407307	0.707672	-3.453525	0.440565	6.000000	1.000000	5.000000
1639	13	The bus hits the motorcycle.wav	1	declarative	2	1	155.000000	2728.000000	2573.000000	2.606142	270.989189	81.000000	3.000000	0.588493	0.612062	-28.206091	0.690096	11.000000	3.000000	8.000000
1775	13	The tiger lifts the bear.wav	1	declarative	1	2	429.000000	2074.000000	1645.000000	1.559505	147.051275	89.000000	17.000000	0.245430	0.630618	-8.580269	0.576506	6.000000	0.000000	6.000000
1775	78	The puppy was licked by the kitten.wav	2	passive	1	2	179.000000	2495.000000	2316.000000	1.724319	211.955334	95.000000	14.000000	0.482697	0.637356	14.481250	0.555729	7.000000	7.000000	0.000000
1775	55	The aunt is assisted by her niece.wav	2	passive	2	1	179.000000	2786.000000	2607.000000	1.857381	144.939692	89.000000	23.000000	0.334876	0.518162	-5.251603	0.790415	11.000000	8.000000	3.000000
1775	18	The kid tickles the mom.wav	1	declarative	1	2	339.000000	2145.000000	1806.000000	1.624960	137.791174	81.000000	13.000000	0.238643	0.579001	-12.688515	0.502799	12.000000	4.000000	8.000000
1775	83	The cat attacks the fireman.wav	1	declarative	1	2	629.000000	2167.000000	1538.000000	1.631580	161.936522	85.000000	9.000000	0.263250	0.676421	3.944225	0.490313	13.000000	5.000000	8.000000
1775	71	The chef was suprised by the mailman.wav	2	passive	1	2	209.000000	2923.000000	2714.000000	1.742676	78.820449	91.000000	25.000000	0.248866	0.680667	-3.566380	1.126431	9.000000	1.000000	8.000000
1775	82	The panda is colored by the monkey.wav	2	passive	2	1	109.000000	2517.000000	2408.000000	1.686622	167.990177	96.000000	22.000000	0.358547	0.697919	-21.203726	0.846671	12.000000	11.000000	0.000000
1775	11	The cloud hides the sun.wav	1	declarative	1	2	1027.000000	3213.000000	2186.000000	1.628963	145.387881	75.000000	9.000000	0.249646	0.677865	-16.476881	0.153032	7.000000	3.000000	4.000000
1775	12	The chicken was scared by the crow.wav	2	passive	2	1	89.000000	2673.000000	2584.000000	1.561748	201.531754	96.000000	17.000000	0.339782	0.698447	1.330903	0.554089	11.000000	6.000000	5.000000
1775	53	The pig was followed by the hen.wav	2	passive	2	1	379.000000	2878.000000	2499.000000	1.885360	64.138466	91.000000	27.000000	0.169438	0.623863	38.367485	1.249231	18.000000	10.000000	8.000000
1775	80	The fish eats the fisherman.wav	1	declarative	2	1	149.000000	2714.000000	2565.000000	1.902283	87.675613	87.000000	19.000000	0.220132	0.686900	-1.425385	1.096879	8.000000	1.000000	7.000000
1775	64	The nurse hugs the surgeon.wav	1	declarative	2	1	109.000000	2029.000000	1920.000000	1.686502	66.600077	85.000000	23.000000	0.210032	0.675975	9.217983	0.930356	12.000000	3.000000	8.000000
1775	48	The bus hits the motorcycle.wav	1	declarative	2	1	308.000000	2307.000000	1999.000000	1.922266	81.997647	91.000000	24.000000	0.295466	0.577654	0.170185	1.205556	12.000000	8.000000	4.000000
1775	50	The husband was fed by his wife.wav	2	passive	1	2	140.000000	2797.000000	2657.000000	1.842436	71.227265	91.000000	32.000000	0.281085	0.651181	-3.627567	1.207309	10.000000	5.000000	5.000000
1775	60	The grandmother finds the grandson.wav	1	declarative	2	1	118.000000	2729.000000	2611.000000	1.993136	154.697572	93.000000	23.000000	0.393592	0.680623	16.976579	1.009131	14.000000	3.000000	11.000000
1775	69	The boy is pushed by his sister.wav	2	passive	1	2	103.000000	1953.000000	1850.000000	1.762629	58.300078	91.000000	36.000000	0.282089	0.663862	7.386499	1.272221	11.000000	1.000000	10.000000
1775	22	The seagull chases the tourist.wav	1	declarative	2	1	234.000000	2054.000000	1820.000000	2.076589	54.144541	95.000000	26.000000	0.199505	0.617845	12.404822	1.780628	11.000000	4.000000	7.000000
1775	26	The hero is killed by the robber.wav	2	passive	2	1	238.000000	2715.000000	2477.000000	1.977519	141.936186	90.000000	25.000000	0.309881	0.654021	6.760102	0.980684	11.000000	2.000000	9.000000
1775	81	The daughter kisses the king.wav	1	declarative	1	2	104.000000	1834.000000	1730.000000	2.017428	155.329967	89.000000	25.000000	0.478457	0.770308	13.140333	0.637295	12.000000	4.000000	8.000000
1775	58	The elephant was washed by the worker.wav	2	passive	2	1	169.000000	3331.000000	3162.000000	2.534474	109.542073	95.000000	21.000000	0.407171	0.607581	-6.445418	1.887016	10.000000	5.000000	5.000000
1775	28	The dog was bitten by the snake.wav	2	passive	1	2	338.000000	2550.000000	2212.000000	1.993780	170.385886	90.000000	17.000000	0.420369	0.658677	26.176117	0.599539	15.000000	5.000000	10.000000
1775	42	The princess slaps the prince.wav	1	declarative	2	1	99.000000	2219.000000	2120.000000	2.230527	162.536881	93.000000	28.000000	0.520957	0.794273	0.684668	1.199515	9.000000	2.000000	7.000000
1775	40	The bird watches the alligator.wav	1	declarative	1	2	143.000000	3806.000000	3663.000000	2.541770	54.206915	76.000000	28.000000	0.318002	0.824833	11.353628	1.592306	10.000000	3.000000	7.000000
1775	73	The skier was crushed by the snowboard.wav	2	passive	1	2	219.000000	5390.000000	5171.000000	2.786914	110.813571	95.000000	24.000000	0.290867	0.905577	-2.585268	2.111466	12.000000	2.000000	9.000000
1775	33	The turtle was carried by the sheep.wav	2	passive	1	2	349.000000	2918.000000	2569.000000	2.494803	178.886332	89.000000	21.000000	0.489119	1.060002	8.387557	1.353992	16.000000	5.000000	11.000000
1775	24	The robber shoots the policeman.wav	1	declarative	2	1	138.000000	2754.000000	2616.000000	2.812542	117.279842	89.000000	30.000000	0.324422	1.024055	-10.092050	1.944487	13.000000	2.000000	11.000000
1800	82	The tiger lifts the bear.wav	1	declarative	1	2	153.000000	3639.000000	3486.000000	2.048117	119.889732	94.000000	24.000000	0.154102	0.606018	-3.811650	1.358356	15.000000	1.000000	13.000000
1800	27	The bird watches the alligator.wav	1	declarative	1	2	178.000000	2860.000000	2682.000000	1.717735	125.073491	85.000000	20.000000	0.296829	0.648749	-4.342887	0.548772	23.000000	9.000000	14.000000
1800	80	The turtle was carried by the sheep.wav	2	passive	1	2	264.000000	3558.000000	3294.000000	1.741302	84.597829	18.000000	14.000000	0.109355	0.615857	4.934164	0.341231	9.000000	1.000000	8.000000
1800	28	The panda is colored by the monkey.wav	2	passive	2	1	233.000000	2766.000000	2533.000000	1.617209	59.942968	8.000000	22.000000	0.198737	0.676749	16.288640	0.000300	8.000000	1.000000	6.000000
1800	81	The skier was crushed by the snowboard.wav	2	passive	1	2	293.000000	3570.000000	3277.000000	1.885410	133.638930	91.000000	15.000000	0.261031	0.466450	6.926466	0.984688	8.000000	1.000000	7.000000
1800	23	The puppy was licked by the kitten.wav	2	passive	1	2	103.000000	3374.000000	3271.000000	1.799560	81.532124	96.000000	19.000000	0.100250	0.532917	-1.721269	1.391899	11.000000	0.000000	10.000000
1800	34	The daughter kisses the king.wav	1	declarative	1	2	323.000000	2398.000000	2075.000000	1.753822	131.737297	93.000000	20.000000	0.354720	0.753384	5.163776	0.907644	8.000000	1.000000	7.000000
1800	84	The cloud hides the sun.wav	1	declarative	1	2	208.000000	2876.000000	2668.000000	1.835484	107.816406	91.000000	15.000000	0.272966	0.747741	29.559662	1.160924	10.000000	3.000000	7.000000
1800	57	The chef was suprised by the mailman.wav	2	passive	1	2	363.000000	2143.000000	1780.000000	1.959169	111.422837	83.000000	22.000000	0.293437	0.581901	27.106813	0.515244	13.000000	10.000000	3.000000
1800	32	The cat attacks the fireman.wav	1	declarative	1	2	68.000000	2089.000000	2021.000000	1.773311	199.079535	95.000000	5.000000	0.508445	0.780660	30.688006	0.696767	8.000000	4.000000	3.000000
1800	11	The grandmother finds the grandson.wav	1	declarative	2	1	398.000000	2248.000000	1850.000000	1.749381	117.363972	92.000000	20.000000	0.313697	0.716741	-3.078242	1.024584	13.000000	3.000000	10.000000
1800	17	The princess slaps the prince.wav	1	declarative	2	1	165.000000	2205.000000	2040.000000	1.802946	58.549335	96.000000	24.000000	0.253323	0.702994	-11.719454	1.510200	12.000000	2.000000	10.000000
1800	55	The chicken was scared by the crow.wav	2	passive	2	1	438.000000	2277.000000	1839.000000	1.870208	57.297744	22.000000	20.000000	0.294290	0.705318	4.471601	0.039815	7.000000	2.000000	5.000000
1800	58	The baby touches the hamster.wav	1	declarative	1	2	373.000000	2220.000000	1847.000000	1.889323	79.122622	96.000000	18.000000	0.294603	0.869843	29.847900	1.493710	12.000000	1.000000	11.000000
1800	63	The husband was fed by his wife.wav	2	passive	1	2	223.000000	3280.000000	3057.000000	2.171072	143.181505	89.000000	21.000000	0.413110	0.968677	78.107611	1.326592	6.000000	3.000000	3.000000
1800	31	The nurse hugs the surgeon.wav	1	declarative	2	1	447.000000	2676.000000	2229.000000	2.579038	136.537563	91.000000	16.000000	0.144632	0.513215	89.486841	1.644889	7.000000	0.000000	7.000000
1800	35	The aunt is assisted by her niece.wav	2	passive	2	1	454.000000	5704.000000	5250.000000	2.301549	140.137384	53.000000	29.000000	0.215085	1.088827	-9.861335	1.220915	15.000000	5.000000	9.000000
1800	22	The seagull chases the tourist.wav	1	declarative	2	1	163.000000	2931.000000	2768.000000	2.735779	240.459647	96.000000	22.000000	0.515782	0.913879	-14.744823	1.533481	15.000000	1.000000	13.000000
1800	73	The bus hits the motorcycle.wav	1	declarative	2	1	263.000000	2604.000000	2341.000000	2.338341	197.252586	64.000000	17.000000	0.295498	0.984469	13.157901	1.092673	19.000000	4.000000	14.000000
1800	40	The boxer is punched by the kangeroo.wav	2	passive	2	1	158.000000	2977.000000	2819.000000	2.521104	224.240330	84.000000	20.000000	0.437324	1.014186	4.403031	1.123042	19.000000	1.000000	18.000000
1800	13	The boy is pushed by his sister.wav	2	passive	1	2	83.000000	2450.000000	2367.000000	3.023334	244.507996	86.000000	13.000000	0.481356	0.896654	9.021252	1.304066	13.000000	4.000000	9.000000
1800	20	The fish eats the fisherman.wav	1	declarative	2	1	227.000000	2235.000000	2008.000000	2.850612	261.843145	96.000000	25.000000	0.408025	1.057514	3.288609	1.541396	13.000000	5.000000	7.000000
1853	22	The nurse hugs the surgeon.wav	1	declarative	2	1	158.000000	2224.000000	2066.000000	2.098434	68.329359	14.000000	21.000000	0.243250	1.069950	-29.686662	0.197354	10.000000	4.000000	6.000000
1853	21	The bus hits the motorcycle.wav	1	declarative	2	1	264.000000	1824.000000	1560.000000	2.149336	67.157962	95.000000	32.000000	0.326913	1.169656	-45.318086	1.777497	2.000000	2.000000	0.000000
1853	38	The aunt is assisted by her niece.wav	2	passive	2	1	253.000000	2033.000000	1780.000000	2.180542	119.250664	88.000000	10.000000	0.441025	1.191335	-26.848420	1.261024	4.000000	2.000000	2.000000
1853	71	The grandmother finds the grandson.wav	1	declarative	2	1	187.000000	3466.000000	3279.000000	2.715463	105.116784	6.000000	28.000000	0.373957	0.881896	-30.219948	0.034063	4.000000	1.000000	3.000000
1853	50	The chicken was scared by the crow.wav	2	passive	2	1	293.000000	3541.000000	3248.000000	2.672083	98.530007	78.000000	27.000000	0.317187	0.944411	-26.717891	1.557228	4.000000	1.000000	3.000000
1853	76	The pig was followed by the hen.wav	2	passive	2	1	263.000000	2441.000000	2178.000000	3.144716	144.216967	96.000000	27.000000	0.411186	1.295772	-23.869594	2.423631	5.000000	0.000000	5.000000
1853	74	The dog was bitten by the snake.wav	2	passive	1	2	143.000000	2701.000000	2558.000000	2.725749	108.662675	87.000000	33.000000	0.357534	0.820266	-36.436102	1.971035	10.000000	1.000000	9.000000
1853	23	The fish eats the fisherman.wav	1	declarative	2	1	103.000000	1803.000000	1700.000000	2.489325	97.772369	14.000000	21.000000	0.206848	1.082862	-25.177148	0.134291	10.000000	3.000000	7.000000
1853	75	The zebra kicks the horse.wav	1	declarative	1	2	233.000000	2217.000000	1984.000000	2.530323	146.170399	96.000000	24.000000	0.274357	0.607113	-43.713718	1.799471	3.000000	2.000000	1.000000
1853	80	The turtle was carried by the sheep.wav	2	passive	1	2	274.000000	3210.000000	2936.000000	2.488600	126.498812	96.000000	18.000000	0.389473	0.852927	-14.395179	1.856106	4.000000	0.000000	3.000000
1853	84	The seagull chases the tourist.wav	1	declarative	2	1	258.000000	3155.000000	2897.000000	3.581020	98.362309	94.000000	30.000000	0.298964	0.856814	1.447672	3.066599	6.000000	0.000000	6.000000
1853	53	The princess slaps the prince.wav	1	declarative	2	1	153.000000	2535.000000	2382.000000	3.831702	259.457312	96.000000	32.000000	0.472237	1.388605	-46.544530	2.534416	6.000000	2.000000	4.000000
1853	54	The elephant was washed by the worker.wav	2	passive	2	1	223.000000	2780.000000	2557.000000	3.021388	200.683058	95.000000	24.000000	0.463238	0.955288	-33.331766	1.984172	13.000000	2.000000	11.000000
1853	78	The chef was suprised by the mailman.wav	2	passive	1	2	283.000000	2590.000000	2307.000000	3.079374	104.826698	16.000000	31.000000	0.298572	0.580985	-22.741720	0.322681	8.000000	1.000000	6.000000
1853	82	The boxer is punched by the kangeroo.wav	2	passive	2	1	183.000000	4412.000000	4229.000000	5.086607	207.133271	96.000000	29.000000	0.466868	0.813820	-0.469131	4.050940	9.000000	1.000000	8.000000
1853	28	The bird watches the alligator.wav	1	declarative	1	2	274.000000	2308.000000	2034.000000	3.356827	115.547242	89.000000	21.000000	0.242803	0.576014	-21.178453	2.288407	7.000000	1.000000	6.000000
1853	26	The puppy was licked by the kitten.wav	2	passive	1	2	87.000000	2673.000000	2586.000000	3.508766	155.145811	79.000000	23.000000	0.404485	0.601179	-32.009513	2.289955	9.000000	1.000000	8.000000
1853	77	The robber shoots the policeman.wav	1	declarative	2	1	317.000000	2701.000000	2384.000000	3.315791	131.870026	90.000000	29.000000	0.435865	0.739512	-31.590917	2.299204	4.000000	1.000000	2.000000
1853	52	The baby touches the hamster.wav	1	declarative	1	2	273.000000	2651.000000	2378.000000	3.644988	133.088409	89.000000	33.000000	0.354316	0.264167	-22.410916	2.481693	7.000000	1.000000	4.000000
1853	70	The kid tickles the mom.wav	1	declarative	1	2	273.000000	4001.000000	3728.000000	2.899156	106.864000	7.000000	13.000000	0.390293	0.764337	-10.546724	0.007301	6.000000	1.000000	4.000000
1853	81	The cloud hides the sun.wav	1	declarative	1	2	313.000000	4207.000000	3894.000000	3.374098	156.072884	96.000000	19.000000	0.486358	0.862068	-15.379091	2.593734	9.000000	2.000000	7.000000
1853	48	The hero is killed by the robber.wav	2	passive	2	1	148.000000	3995.000000	3847.000000	4.354528	222.676434	9.000000	23.000000	0.606962	1.211921	-44.960594	0.084447	5.000000	1.000000	4.000000
1853	44	The cat attacks the fireman.wav	1	declarative	1	2	284.000000	2386.000000	2102.000000	3.538008	235.302860	96.000000	24.000000	0.436058	0.538182	-34.021291	2.361493	10.000000	1.000000	9.000000
1853	20	The daughter kisses the king.wav	1	declarative	1	2	314.000000	2420.000000	2106.000000	3.422713	194.740461	14.000000	23.000000	0.437375	0.703927	-5.896047	0.062179	9.000000	1.000000	8.000000
1853	66	The skier was crushed by the snowboard.wav	2	passive	1	2	303.000000	3018.000000	2715.000000	3.905605	207.883048	12.000000	22.000000	0.248394	1.042307	27.820961	0.123129	8.000000	2.000000	5.000000
1853	24	The tiger lifts the bear.wav	1	declarative	1	2	236.000000	2596.000000	2360.000000	3.318067	103.578634	74.000000	22.000000	0.352771	0.831992	-45.929667	1.976973	8.000000	3.000000	5.000000
1853	40	The boy is pushed by his sister.wav	2	passive	1	2	128.000000	2238.000000	2110.000000	4.043011	176.064753	93.000000	20.000000	0.575415	0.845010	-19.061964	2.661691	7.000000	1.000000	6.000000
1883	48	The tiger lifts the bear.wav	1	declarative	1	2	228.000000	1939.000000	1711.000000	1.604515	171.088455	92.000000	18.000000	0.382262	0.533031	-20.434733	0.418073	13.000000	12.000000	1.000000
1883	83	The boxer is punched by the kangeroo.wav	2	passive	2	1	213.000000	2483.000000	2270.000000	1.809705	65.512868	86.000000	12.000000	0.102503	0.813687	-24.490206	1.350674	3.000000	1.000000	2.000000
1883	78	The zebra kicks the horse.wav	1	declarative	1	2	267.000000	2148.000000	1881.000000	1.628690	166.251591	95.000000	10.000000	0.288235	0.656615	-11.258675	0.788551	4.000000	1.000000	3.000000
1883	75	The aunt is assisted by her niece.wav	2	passive	2	1	217.000000	2864.000000	2647.000000	1.705705	136.533669	96.000000	10.000000	0.398087	0.728707	-22.168039	1.023037	3.000000	1.000000	2.000000
1883	44	The boy is pushed by his sister.wav	2	passive	1	2	183.000000	2233.000000	2050.000000	1.617011	125.269885	96.000000	15.000000	0.327329	0.784815	5.918330	0.990662	6.000000	3.000000	2.000000
1883	30	The robber shoots the policeman.wav	1	declarative	2	1	268.000000	1418.000000	1150.000000	1.545500	76.247606	96.000000	29.000000	0.269140	0.816174	-6.362630	1.164262	4.000000	2.000000	2.000000
1883	73	The skier was crushed by the snowboard.wav	2	passive	1	2	403.000000	3039.000000	2636.000000	1.886222	111.095914	96.000000	11.000000	0.277236	0.930522	28.066962	1.330743	1.000000	1.000000	0.000000
1883	57	The grandmother finds the grandson.wav	1	declarative	2	1	283.000000	2573.000000	2290.000000	1.725184	96.951721	82.000000	15.000000	0.239035	0.717269	30.566270	0.882948	8.000000	1.000000	7.000000
1883	71	The pig was followed by the hen.wav	2	passive	2	1	173.000000	2303.000000	2130.000000	1.709959	165.935212	96.000000	8.000000	0.384950	0.936942	-5.034102	0.880283	4.000000	1.000000	3.000000
1883	39	The seagull chases the tourist.wav	1	declarative	2	1	388.000000	2018.000000	1630.000000	1.591732	158.848751	96.000000	8.000000	0.294650	0.720316	16.279673	0.797488	6.000000	1.000000	5.000000
1883	56	The baby touches the hamster.wav	1	declarative	1	2	297.000000	2167.000000	1870.000000	1.675001	137.173006	96.000000	8.000000	0.299091	0.754273	1.604283	0.989136	7.000000	1.000000	5.000000
1883	26	The daughter kisses the king.wav	1	declarative	1	2	303.000000	1713.000000	1410.000000	1.708678	162.905252	96.000000	22.000000	0.351564	0.760547	-8.832405	0.894152	12.000000	1.000000	11.000000
1883	64	The chicken was scared by the crow.wav	2	passive	2	1	133.000000	2469.000000	2336.000000	2.166021	206.360047	96.000000	18.000000	0.578773	1.014242	-17.294425	1.134221	6.000000	3.000000	3.000000
1883	81	The dog was bitten by the snake.wav	2	passive	1	2	226.000000	2326.000000	2100.000000	2.114411	129.263479	13.000000	15.000000	0.505215	1.088829	22.808478	0.077515	1.000000	0.000000	1.000000
1883	65	The cloud hides the sun.wav	1	declarative	1	2	213.000000	2450.000000	2237.000000	1.726421	102.145220	96.000000	9.000000	0.210984	0.843041	-0.255142	1.215695	2.000000	1.000000	1.000000
1883	29	The princess slaps the prince.wav	1	declarative	2	1	154.000000	1404.000000	1250.000000	1.814862	125.502161	96.000000	23.000000	0.300480	0.989544	-23.055046	1.187351	17.000000	6.000000	11.000000
1883	40	The fish eats the fisherman.wav	1	declarative	2	1	373.000000	2032.000000	1659.000000	1.762073	211.163672	96.000000	10.000000	0.471836	0.957538	-41.325500	0.706255	4.000000	2.000000	2.000000
1883	24	The nurse hugs the surgeon.wav	1	declarative	2	1	32.000000	2135.000000	2103.000000	1.717239	121.779008	96.000000	26.000000	0.342184	0.939956	-11.497928	1.108344	8.000000	2.000000	6.000000
1883	13	The bird watches the alligator.wav	1	declarative	1	2	348.000000	1418.000000	1070.000000	2.446849	107.719911	52.000000	30.000000	0.133742	0.382053	-50.215319	0.303485	11.000000	10.000000	1.000000
1883	33	The hero is killed by the robber.wav	2	passive	2	1	223.000000	2404.000000	2181.000000	2.863938	237.344282	96.000000	16.000000	0.320307	1.075698	20.201061	1.677217	6.000000	1.000000	5.000000
1883	52	The panda is colored by the monkey.wav	2	passive	2	1	233.000000	2870.000000	2637.000000	3.528887	327.604616	96.000000	14.000000	0.510549	0.986848	-6.199431	1.890864	6.000000	2.000000	4.000000
1883	23	The cat attacks the fireman.wav	1	declarative	1	2	414.000000	1494.000000	1080.000000	2.260846	111.728890	96.000000	25.000000	0.349588	0.981229	-24.224036	1.702202	5.000000	2.000000	3.000000
2005	48	The duck was led by the penguin.wav	2	passive	1	2	71.000000	3313.000000	3242.000000	7.874494	156.641924	67.000000	33.000000	0.156339	0.860919	-10.007980	4.290807	19.000000	1.000000	18.000000
2005	22	The fish eats the fisherman.wav	1	declarative	2	1	2968.000000	3062.000000	94.000000	1.296967	259.393385	96.000000	-1.000000	0.312981	0.396544	49.020809	0.000000	2.000000	1.000000	0.000000
2005	21	The zebra kicks the horse.wav	1	declarative	1	2	499.000000	2882.000000	2383.000000	1.270151	189.354118	96.000000	1.000000	0.153679	0.502019	-27.599087	0.323380	3.000000	0.000000	3.000000
2005	49	The puppy was licked by the kitten.wav	2	passive	1	2	109.000000	3531.000000	3422.000000	10.931700	300.275207	87.000000	50.000000	0.212562	0.674577	-29.810571	7.845811	27.000000	1.000000	26.000000
2005	14	The seagull chases the tourist.wav	1	declarative	2	1	62.000000	2344.000000	2282.000000	1.731680	261.610387	96.000000	9.000000	0.453664	0.615657	8.748008	0.423629	4.000000	2.000000	2.000000
2005	45	The chicken was scared by the crow.wav	2	passive	2	1	149.000000	3375.000000	3226.000000	4.770260	152.818837	71.000000	33.000000	0.212571	0.405714	5.089551	2.448383	29.000000	1.000000	28.000000
2005	72	The chef was suprised by the mailman.wav	2	passive	1	2	194.000000	3954.000000	3760.000000	11.377397	254.370410	86.000000	35.000000	0.239217	1.332052	-16.257275	8.935880	21.000000	1.000000	20.000000
2005	63	The baby touches the hamster.wav	1	declarative	1	2	559.000000	2610.000000	2051.000000	4.820813	340.001830	96.000000	18.000000	0.236408	0.901124	-28.591320	3.120804	9.000000	1.000000	8.000000
2005	39	The hero is killed by the robber.wav	2	passive	2	1	109.000000	4073.000000	3964.000000	8.509634	195.783926	74.000000	49.000000	0.290871	0.291235	8.971375	5.293724	32.000000	1.000000	31.000000
2005	71	The cat attacks the fireman.wav	1	declarative	1	2	259.000000	2152.000000	1893.000000	6.457922	203.802602	66.000000	19.000000	0.197107	0.711996	-19.741354	2.737776	16.000000	4.000000	12.000000
2005	64	The daughter kisses the king.wav	1	declarative	1	2	569.000000	3215.000000	2646.000000	10.095630	221.640006	27.000000	37.000000	0.314868	1.197304	-27.123321	1.330298	20.000000	2.000000	18.000000
2005	67	The elephant was washed by the worker.wav	2	passive	2	1	115.000000	2873.000000	2758.000000	10.761455	222.087275	92.000000	34.000000	0.418853	0.465033	-14.582315	9.138883	20.000000	2.000000	18.000000
2005	69	The dog was bitten by the snake.wav	2	passive	1	2	47.000000	3705.000000	3658.000000	18.490124	395.445189	7.000000	43.000000	0.080829	1.293458	86.280819	1.227914	22.000000	0.000000	21.000000
2005	32	The cloud hides the sun.wav	1	declarative	1	2	349.000000	2585.000000	2236.000000	8.751810	229.151224	92.000000	37.000000	0.143379	0.461731	-11.161460	6.800392	20.000000	2.000000	18.000000
2005	78	The boxer is punched by the kangeroo.wav	2	passive	2	1	139.000000	3273.000000	3134.000000	8.591701	277.931493	96.000000	33.000000	0.468961	0.392432	-33.110340	7.202044	18.000000	1.000000	17.000000
2005	34	The princess slaps the prince.wav	1	declarative	2	1	103.000000	2769.000000	2666.000000	5.034326	149.743844	91.000000	28.000000	0.314194	0.735259	-27.666935	4.129817	20.000000	2.000000	18.000000
2005	60	The nurse hugs the surgeon.wav	1	declarative	2	1	1509.000000	2816.000000	1307.000000	4.878681	249.410839	96.000000	19.000000	0.257801	0.550115	37.531482	3.631627	10.000000	0.000000	9.000000
2005	61	The bird watches the alligator.wav	1	declarative	1	2	933.000000	2266.000000	1333.000000	5.789421	151.242155	79.000000	21.000000	0.319327	0.904960	-13.261030	3.071815	9.000000	1.000000	8.000000
2005	68	The husband was fed by his wife.wav	2	passive	1	2	32.000000	4461.000000	4429.000000	18.465932	391.972333	80.000000	52.000000	0.289414	1.722302	87.896418	13.538312	29.000000	0.000000	28.000000
2005	30	The panda is colored by the monkey.wav	2	passive	2	1	31.000000	3827.000000	3796.000000	17.070408	357.572105	70.000000	55.000000	0.211951	0.423168	6.920370	8.061962	32.000000	1.000000	31.000000
2005	84	The skier was crushed by the snowboard.wav	2	passive	1	2	1159.000000	6519.000000	5360.000000	5.208805	219.416051	69.000000	23.000000	0.461082	1.157053	15.948867	1.836983	18.000000	9.000000	8.000000
2005	66	The pig was followed by the hen.wav	2	passive	2	1	143.000000	2675.000000	2532.000000	18.870742	289.899476	24.000000	32.000000	0.461498	-0.412094	-9.028105	3.903519	18.000000	2.000000	16.000000
2005	82	The aunt is assisted by her niece.wav	2	passive	2	1	47.000000	4621.000000	4574.000000	9.681147	245.632413	59.000000	34.000000	0.407559	0.328331	16.890171	4.221349	20.000000	2.000000	18.000000
2005	81	The robber shoots the policeman.wav	1	declarative	2	1	609.000000	3820.000000	3211.000000	8.094481	358.779393	62.000000	23.000000	0.376006	-0.213828	-10.494996	2.332638	13.000000	0.000000	13.000000
2005	77	The bus hits the motorcycle.wav	1	declarative	2	1	109.000000	6269.000000	6160.000000	25.037883	389.103524	36.000000	52.000000	0.376106	0.240386	-15.751174	8.363948	45.000000	0.000000	45.000000
2083	35	The daughter kisses the king.wav	1	declarative	1	2	32.000000	3275.000000	3243.000000	1.608671	218.731221	91.000000	7.000000	0.302000	0.597933	-8.818077	0.428168	3.000000	1.000000	2.000000
2083	50	The grandmother finds the grandson.wav	1	declarative	2	1	545.000000	3807.000000	3262.000000	1.575266	231.189047	96.000000	18.000000	0.374498	0.645389	-4.755249	0.419320	6.000000	1.000000	5.000000
2083	77	The dog was bitten by the snake.wav	2	passive	1	2	269.000000	3887.000000	3618.000000	1.640410	103.971181	81.000000	12.000000	0.252220	0.701570	8.258654	0.595765	5.000000	1.000000	4.000000
2083	49	The pig was followed by the hen.wav	2	passive	2	1	188.000000	4657.000000	4469.000000	1.625089	208.450710	94.000000	7.000000	0.368147	0.677129	-4.402583	0.523617	17.000000	9.000000	7.000000
2083	58	The kid tickles the mom.wav	1	declarative	1	2	344.000000	5501.000000	5157.000000	1.717996	121.344685	81.000000	9.000000	0.345207	0.727165	7.531234	0.539096	4.000000	1.000000	2.000000
2083	36	The turtle was carried by the sheep.wav	2	passive	1	2	179.000000	4295.000000	4116.000000	1.590828	153.908784	94.000000	3.000000	0.314769	0.717300	-2.015442	0.612166	2.000000	0.000000	1.000000
2083	62	The boy is pushed by his sister.wav	2	passive	1	2	309.000000	3928.000000	3619.000000	1.681297	151.564175	77.000000	11.000000	0.199754	0.704956	-3.715057	0.576859	4.000000	0.000000	3.000000
2083	25	The hero is killed by the robber.wav	2	passive	2	1	399.000000	4856.000000	4457.000000	1.645681	215.343734	96.000000	3.000000	0.406473	0.724959	-0.276217	0.568962	5.000000	0.000000	4.000000
2083	82	The zebra kicks the horse.wav	1	declarative	1	2	279.000000	4323.000000	4044.000000	1.661111	192.184434	96.000000	0.000000	0.365595	0.777488	-1.339138	0.700189	3.000000	0.000000	2.000000
2083	45	The bird watches the alligator.wav	1	declarative	1	2	109.000000	3853.000000	3744.000000	1.722745	201.478637	96.000000	5.000000	0.382262	0.754242	7.507162	0.715352	5.000000	0.000000	4.000000
2083	30	The cat attacks the fireman.wav	1	declarative	1	2	119.000000	3241.000000	3122.000000	1.812220	243.872038	96.000000	1.000000	0.486743	0.745951	-1.730398	0.592859	4.000000	2.000000	1.000000
2083	26	The chef was suprised by the mailman.wav	2	passive	1	2	47.000000	3545.000000	3498.000000	1.781245	197.717339	96.000000	3.000000	0.354079	0.797853	0.352721	0.792658	5.000000	0.000000	3.000000
2083	84	The fish eats the fisherman.wav	1	declarative	2	1	179.000000	2947.000000	2768.000000	1.781169	137.984390	92.000000	5.000000	0.410566	0.767990	-0.159746	0.760748	5.000000	2.000000	3.000000
2083	53	The tiger lifts the bear.wav	1	declarative	1	2	109.000000	4046.000000	3937.000000	1.827417	116.744859	77.000000	16.000000	0.200616	0.753663	-5.692435	0.960705	15.000000	6.000000	9.000000
2083	14	The panda is colored by the monkey.wav	2	passive	2	1	88.000000	5714.000000	5626.000000	1.773129	184.036649	2.000000	1.000000	0.299684	0.838884	-1.208658	0.016000	3.000000	0.000000	2.000000
2083	42	The seagull chases the tourist.wav	1	declarative	2	1	249.000000	4540.000000	4291.000000	1.748921	209.656041	96.000000	2.000000	0.447386	0.827290	-9.122896	0.700640	1.000000	0.000000	0.000000
2083	51	The cloud hides the sun.wav	1	declarative	1	2	139.000000	7549.000000	7410.000000	1.773385	198.573473	94.000000	3.000000	0.386284	0.808340	4.062065	0.752440	4.000000	0.000000	4.000000
2083	47	The puppy was licked by the kitten.wav	2	passive	1	2	178.000000	4983.000000	4805.000000	2.110003	136.513120	72.000000	7.000000	0.236797	0.800250	9.859997	0.817525	9.000000	2.000000	6.000000
2083	56	The husband was fed by his wife.wav	2	passive	1	2	159.000000	4452.000000	4293.000000	1.731735	158.024674	3.000000	4.000000	0.314631	0.867876	1.737636	0.000000	2.000000	1.000000	1.000000
2083	21	The princess slaps the prince.wav	1	declarative	2	1	47.000000	2030.000000	1983.000000	1.842954	181.382217	96.000000	13.000000	0.385438	0.842029	-6.311852	0.936043	6.000000	1.000000	4.000000
2083	19	The robber shoots the policeman.wav	1	declarative	2	1	103.000000	5941.000000	5838.000000	1.798414	191.600847	96.000000	0.000000	0.415495	0.836029	0.374324	0.840410	4.000000	0.000000	3.000000
2083	48	The boxer is punched by the kangeroo.wav	2	passive	2	1	2250.000000	3726.000000	1476.000000	1.976694	163.850732	96.000000	4.000000	0.403757	0.823551	1.818303	1.157441	6.000000	0.000000	5.000000
2083	74	The bus hits the motorcycle.wav	1	declarative	2	1	129.000000	1989.000000	1860.000000	2.069169	147.091307	94.000000	24.000000	0.470208	0.835779	-4.398705	1.195942	12.000000	1.000000	9.000000
2083	11	The baby touches the hamster.wav	1	declarative	1	2	143.000000	12854.000000	12711.000000	1.941391	205.493276	1.000000	1.000000	0.065886	0.862102	-1.563166	0.000000	3.000000	0.000000	2.000000
2083	24	The elephant was washed by the worker.wav	2	passive	2	1	134.000000	5483.000000	5349.000000	2.075232	181.184165	96.000000	4.000000	0.455136	1.034809	-24.398251	1.169311	3.000000	0.000000	2.000000
2164	57	The bird watches the alligator.wav	1	declarative	1	2	1849.000000	2626.000000	777.000000	1.765799	117.535622	77.000000	5.000000	0.251001	0.861485	12.691519	0.455937	3.000000	1.000000	2.000000
2164	66	The chicken was scared by the crow.wav	2	passive	2	1	169.000000	2511.000000	2342.000000	2.373714	66.052674	10.000000	19.000000	0.086225	0.584074	54.757229	0.058023	15.000000	2.000000	13.000000
2164	32	The princess slaps the prince.wav	1	declarative	2	1	119.000000	1789.000000	1670.000000	1.843854	89.425721	11.000000	30.000000	0.226755	0.854255	-3.725185	0.068372	12.000000	2.000000	10.000000
2164	26	The chef was suprised by the mailman.wav	2	passive	1	2	248.000000	2127.000000	1879.000000	1.855632	229.919903	12.000000	11.000000	0.009042	0.915350	2.556150	0.081407	2.000000	1.000000	0.000000
2164	78	The robber shoots the policeman.wav	1	declarative	2	1	178.000000	4475.000000	4297.000000	2.590534	70.134621	4.000000	26.000000	0.081717	0.391295	89.585121	0.005500	4.000000	0.000000	3.000000
2164	64	The panda is colored by the monkey.wav	2	passive	2	1	94.000000	2363.000000	2269.000000	2.323621	55.522808	87.000000	29.000000	0.097602	0.476526	48.646518	1.794314	5.000000	2.000000	2.000000
2164	56	The cloud hides the sun.wav	1	declarative	1	2	299.000000	5476.000000	5177.000000	3.394151	153.582608	9.000000	20.000000	0.281428	1.007352	51.789608	0.460588	8.000000	1.000000	6.000000
2164	59	The tiger lifts the bear.wav	1	declarative	1	2	219.000000	2463.000000	2244.000000	2.123992	113.850083	90.000000	11.000000	0.398106	1.109051	42.125512	1.310415	4.000000	2.000000	2.000000
2164	22	The dog was bitten by the snake.wav	2	passive	1	2	359.000000	2466.000000	2107.000000	2.742773	127.740628	16.000000	25.000000	0.118383	0.858163	4.578010	0.150019	9.000000	1.000000	8.000000
2164	48	The bus hits the motorcycle.wav	1	declarative	2	1	47.000000	4007.000000	3960.000000	2.196042	136.324225	3.000000	26.000000	0.257374	1.121428	-17.851884	0.102827	5.000000	1.000000	4.000000
2164	73	The grandmother finds the grandson.wav	1	declarative	2	1	47.000000	5016.000000	4969.000000	2.984153	84.519697	3.000000	34.000000	0.181918	0.800384	21.788792	0.045220	8.000000	1.000000	7.000000
2164	21	The seagull chases the tourist.wav	1	declarative	2	1	1548.000000	2247.000000	699.000000	2.214047	201.634112	70.000000	8.000000	0.296654	0.963498	4.168453	0.106400	3.000000	0.000000	2.000000
2164	43	The fish eats the fisherman.wav	1	declarative	2	1	49.000000	3108.000000	3059.000000	2.572838	114.353514	3.000000	28.000000	0.260880	0.980099	2.078370	0.038014	9.000000	1.000000	7.000000
2164	27	The skier was crushed by the snowboard.wav	2	passive	1	2	468.000000	2138.000000	1670.000000	2.101377	149.713774	96.000000	22.000000	0.403539	1.185270	12.891811	1.352808	12.000000	5.000000	7.000000
2164	70	The cat attacks the fireman.wav	1	declarative	1	2	138.000000	3227.000000	3089.000000	2.136842	67.289254	7.000000	24.000000	0.426246	1.086140	37.604883	0.063667	5.000000	1.000000	3.000000
2164	17	The aunt is assisted by her niece.wav	2	passive	2	1	219.000000	2138.000000	1919.000000	2.275940	78.449697	12.000000	23.000000	0.316603	1.172319	-16.155198	0.087920	9.000000	0.000000	8.000000
2164	65	The husband was fed by his wife.wav	2	passive	1	2	143.000000	5302.000000	5159.000000	3.870657	182.798731	70.000000	26.000000	0.133019	0.962033	-6.225829	2.803971	12.000000	1.000000	10.000000
2164	68	The turtle was carried by the sheep.wav	2	passive	1	2	31.000000	2819.000000	2788.000000	2.349150	61.186666	77.000000	33.000000	0.463535	1.243103	22.235564	1.499809	21.000000	4.000000	17.000000
2164	15	The nurse hugs the surgeon.wav	1	declarative	2	1	343.000000	2042.000000	1699.000000	2.308977	138.643433	89.000000	13.000000	0.467816	1.139820	-1.588277	1.487704	7.000000	0.000000	7.000000
2164	85	The kid tickles the mom.wav	1	declarative	1	2	49.000000	3440.000000	3391.000000	5.054067	206.692595	96.000000	30.000000	0.403141	1.111194	7.844893	4.020604	11.000000	0.000000	11.000000
2164	42	The boy is pushed by his sister.wav	2	passive	1	2	119.000000	2435.000000	2316.000000	3.026549	210.748246	96.000000	22.000000	0.372215	1.064758	19.915774	1.972808	9.000000	3.000000	5.000000
2164	63	The elephant was washed by the worker.wav	2	passive	2	1	339.000000	2998.000000	2659.000000	3.110013	213.532524	96.000000	36.000000	0.355434	0.964475	39.574568	2.042350	2.000000	0.000000	2.000000
2164	45	The daughter kisses the king.wav	1	declarative	1	2	139.000000	4286.000000	4147.000000	3.437621	241.221081	93.000000	19.000000	0.438448	1.162525	1.712434	2.174135	13.000000	0.000000	12.000000
2164	37	The baby touches the hamster.wav	1	declarative	1	2	221.000000	2659.000000	2438.000000	4.399848	252.972785	10.000000	24.000000	0.257745	0.741573	-10.146285	0.084698	11.000000	1.000000	10.000000
2164	81	The zebra kicks the horse.wav	1	declarative	1	2	99.000000	2466.000000	2367.000000	2.875758	259.781529	96.000000	25.000000	0.829495	1.425697	41.611775	1.576850	16.000000	2.000000	13.000000
2164	55	The puppy was licked by the kitten.wav	2	passive	1	2	569.000000	3297.000000	2728.000000	4.005419	325.479334	86.000000	18.000000	0.613298	0.556265	3.822360	1.913558	10.000000	0.000000	9.000000
2224	36	The nurse hugs the surgeon.wav	1	declarative	2	1	2167.000000	3227.000000	1060.000000	1.522442	160.920278	87.000000	9.000000	0.258659	0.471539	31.540389	0.262655	19.000000	10.000000	8.000000
2224	49	The pig was followed by the hen.wav	2	passive	2	1	31.000000	5654.000000	5623.000000	1.672386	278.110546	95.000000	6.000000	0.334543	0.754900	-2.292291	0.167620	6.000000	6.000000	0.000000
2224	37	The duck was led by the penguin.wav	2	passive	1	2	2750.000000	7726.000000	4976.000000	1.846978	318.638311	96.000000	5.000000	0.419629	0.861536	47.680728	0.253787	3.000000	0.000000	2.000000
2224	56	The zebra kicks the horse.wav	1	declarative	1	2	1558.000000	4629.000000	3071.000000	1.637045	204.981106	96.000000	10.000000	0.228669	0.760433	-7.168337	0.612139	7.000000	0.000000	6.000000
2224	62	The boxer is punched by the kangeroo.wav	2	passive	2	1	88.000000	4031.000000	3943.000000	1.808725	165.290065	96.000000	26.000000	0.284809	0.864568	2.094373	0.982275	12.000000	1.000000	11.000000
2224	30	The cat attacks the fireman.wav	1	declarative	1	2	294.000000	2447.000000	2153.000000	2.057492	115.943336	14.000000	31.000000	0.151615	0.788106	-8.520723	0.085990	26.000000	3.000000	23.000000
2224	13	The boy is pushed by his sister.wav	2	passive	1	2	393.000000	4601.000000	4208.000000	1.889670	115.192509	78.000000	11.000000	0.215868	0.895235	-18.908126	0.594040	10.000000	0.000000	10.000000
2224	65	The fish eats the fisherman.wav	1	declarative	2	1	129.000000	2308.000000	2179.000000	1.705058	131.114985	96.000000	15.000000	0.258781	0.914348	-1.092758	1.049483	11.000000	4.000000	7.000000
2224	12	The husband was fed by his wife.wav	2	passive	1	2	458.000000	5963.000000	5505.000000	1.918944	111.461285	96.000000	13.000000	0.297825	0.656902	-8.014894	1.361637	8.000000	1.000000	7.000000
2224	20	The puppy was licked by the kitten.wav	2	passive	1	2	359.000000	10021.000000	9662.000000	2.000838	342.883256	96.000000	7.000000	0.302651	0.809334	-35.065122	0.286422	8.000000	1.000000	5.000000
2224	82	The baby touches the hamster.wav	1	declarative	1	2	32.000000	3250.000000	3218.000000	1.912653	162.803137	13.000000	3.000000	0.153003	0.885298	2.602562	0.540132	6.000000	2.000000	4.000000
2224	39	The cloud hides the sun.wav	1	declarative	1	2	189.000000	2388.000000	2199.000000	1.903699	174.541167	96.000000	15.000000	0.352325	0.933325	3.527981	1.030994	14.000000	1.000000	13.000000
2224	42	The aunt is assisted by her niece.wav	2	passive	2	1	3592.000000	3935.000000	343.000000	1.997886	300.571101	92.000000	1.000000	0.306191	0.794494	15.190703	0.001931	3.000000	1.000000	1.000000
2224	68	The chef was suprised by the mailman.wav	2	passive	1	2	31.000000	4514.000000	4483.000000	1.838984	178.264827	7.000000	5.000000	0.217003	0.903114	2.799133	0.107668	8.000000	1.000000	6.000000
2224	85	The grandmother finds the grandson.wav	1	declarative	2	1	31.000000	3322.000000	3291.000000	1.880136	171.685103	96.000000	17.000000	0.317026	0.872538	7.800532	1.021711	9.000000	2.000000	6.000000
2224	16	The hero is killed by the robber.wav	2	passive	2	1	31.000000	3589.000000	3558.000000	2.039294	230.338413	96.000000	16.000000	0.568311	0.665147	-25.972562	0.887602	7.000000	1.000000	5.000000
2224	73	The skier was crushed by the snowboard.wav	2	passive	1	2	31.000000	9061.000000	9030.000000	1.758933	214.726357	1.000000	-1.000000	0.331322	0.935356	-1.154089	0.000000	2.000000	0.000000	1.000000
2224	22	The bird watches the alligator.wav	1	declarative	1	2	513.000000	3686.000000	3173.000000	2.335108	183.350006	96.000000	11.000000	0.287876	1.004207	-22.465105	1.418358	8.000000	1.000000	7.000000
2224	25	The tiger lifts the bear.wav	1	declarative	1	2	2782.000000	7508.000000	4726.000000	2.227589	159.804386	37.000000	12.000000	0.305388	0.979130	-2.183172	0.000000	8.000000	0.000000	8.000000
2224	47	The bus hits the motorcycle.wav	1	declarative	2	1	268.000000	3570.000000	3302.000000	2.165819	191.887162	91.000000	12.000000	0.503930	1.007170	-44.374655	1.181718	17.000000	2.000000	15.000000
2224	46	The dog was bitten by the snake.wav	2	passive	1	2	343.000000	2972.000000	2629.000000	2.261729	116.154347	93.000000	30.000000	0.243201	0.922195	-11.605361	1.465302	14.000000	2.000000	11.000000
2224	58	The kid tickles the mom.wav	1	declarative	1	2	95.000000	2285.000000	2190.000000	2.030591	160.768547	96.000000	3.000000	0.446243	1.011593	-1.822336	1.226749	4.000000	1.000000	3.000000
2224	23	The seagull chases the tourist.wav	1	declarative	2	1	389.000000	4944.000000	4555.000000	2.052904	179.080079	31.000000	17.000000	0.463843	1.233904	-27.525459	0.152066	7.000000	5.000000	2.000000
2224	52	The panda is colored by the monkey.wav	2	passive	2	1	98.000000	3010.000000	2912.000000	2.052461	180.778046	96.000000	5.000000	0.429771	0.949451	-7.970150	1.148571	7.000000	2.000000	5.000000
2224	19	The chicken was scared by the crow.wav	2	passive	2	1	253.000000	4679.000000	4426.000000	2.192806	190.593314	94.000000	17.000000	0.482035	0.956975	-23.150301	1.196418	12.000000	1.000000	11.000000
2224	24	The turtle was carried by the sheep.wav	2	passive	1	2	119.000000	2841.000000	2722.000000	2.234160	228.671669	96.000000	15.000000	0.335698	1.104784	-17.430120	1.090802	7.000000	2.000000	5.000000
2224	40	The robber shoots the policeman.wav	1	declarative	2	1	519.000000	4860.000000	4341.000000	2.475954	269.521493	11.000000	9.000000	0.614121	1.072911	5.963939	0.013427	5.000000	1.000000	3.000000
2224	11	The princess slaps the prince.wav	1	declarative	2	1	1358.000000	37494.000000	36136.000000	6.755259	260.208504	96.000000	38.000000	0.601871	0.813847	-15.773472	5.454217	18.000000	0.000000	16.000000
2224	81	The elephant was washed by the worker.wav	2	passive	2	1	31.000000	3877.000000	3846.000000	2.913911	183.977976	21.000000	23.000000	0.427384	1.084345	-34.579981	0.479912	9.000000	1.000000	8.000000
2254	48	The hero is killed by the robber.wav	2	passive	2	1	203.000000	1973.000000	1770.000000	1.590330	205.102184	10.000000	5.000000	0.087043	0.960037	-7.978018	0.016747	6.000000	0.000000	4.000000
2254	18	The cat attacks the fireman.wav	1	declarative	1	2	79.000000	2069.000000	1990.000000	2.027687	198.926178	5.000000	11.000000	0.059496	0.585628	-13.432446	0.083578	13.000000	2.000000	10.000000
2254	54	The dog was bitten by the snake.wav	2	passive	1	2	48.000000	1899.000000	1851.000000	2.505753	211.196212	6.000000	4.000000	0.107310	0.673321	-20.327532	0.320866	11.000000	1.000000	10.000000
2254	45	The robber shoots the policeman.wav	1	declarative	2	1	78.000000	1886.000000	1808.000000	2.574169	336.958826	10.000000	13.000000	0.085396	0.544311	31.867115	0.193444	13.000000	3.000000	8.000000
2254	24	The seagull chases the tourist.wav	1	declarative	2	1	99.000000	1679.000000	1580.000000	1.677440	89.088648	11.000000	7.000000	0.127427	1.012847	-1.640481	0.175415	6.000000	1.000000	5.000000
2254	80	The turtle was carried by the sheep.wav	2	passive	1	2	254.000000	2341.000000	2087.000000	1.864983	176.921432	24.000000	11.000000	0.175651	0.938904	7.400237	0.392369	5.000000	2.000000	2.000000
2254	63	The zebra kicks the horse.wav	1	declarative	1	2	104.000000	2789.000000	2685.000000	1.759522	93.696663	96.000000	9.000000	0.206658	0.924418	-5.281550	1.291039	8.000000	1.000000	7.000000
2254	44	The skier was crushed by the snowboard.wav	2	passive	1	2	118.000000	2774.000000	2656.000000	2.428920	247.569456	5.000000	7.000000	0.232472	0.927464	2.380412	0.157757	8.000000	1.000000	6.000000
2254	62	The grandmother finds the grandson.wav	1	declarative	2	1	31.000000	2495.000000	2464.000000	1.725337	151.474287	13.000000	17.000000	0.232627	0.923670	-13.862485	0.106211	10.000000	2.000000	8.000000
2254	23	The bus hits the motorcycle.wav	1	declarative	2	1	47.000000	1838.000000	1791.000000	2.061951	201.361040	5.000000	5.000000	0.104209	0.620771	24.583105	0.278346	8.000000	2.000000	5.000000
2254	71	The fish eats the fisherman.wav	1	declarative	2	1	119.000000	1929.000000	1810.000000	1.732995	107.157869	9.000000	8.000000	0.212862	0.864500	5.961005	0.343230	9.000000	2.000000	7.000000
2254	55	The chef was suprised by the mailman.wav	2	passive	1	2	289.000000	2299.000000	2010.000000	1.980753	162.354771	14.000000	5.000000	0.322460	0.988670	8.313790	0.019440	9.000000	1.000000	8.000000
2254	79	The cloud hides the sun.wav	1	declarative	1	2	118.000000	2279.000000	2161.000000	1.825192	117.642047	5.000000	15.000000	0.225285	0.736183	-3.817473	0.027465	10.000000	2.000000	8.000000
2254	35	The aunt is assisted by her niece.wav	2	passive	2	1	47.000000	2615.000000	2568.000000	2.058807	117.600626	7.000000	11.000000	0.370759	1.626705	-16.462733	0.232177	14.000000	2.000000	11.000000
2254	68	The daughter kisses the king.wav	1	declarative	1	2	117.000000	1547.000000	1430.000000	1.942852	171.832194	7.000000	5.000000	0.206374	0.856496	-5.795130	0.135351	5.000000	1.000000	4.000000
2254	46	The tiger lifts the bear.wav	1	declarative	1	2	74.000000	2511.000000	2437.000000	2.152499	282.272509	3.000000	8.000000	0.168473	0.827237	-1.115012	0.003105	11.000000	1.000000	10.000000
2254	26	The kid tickles the mom.wav	1	declarative	1	2	64.000000	1924.000000	1860.000000	2.336760	229.960588	7.000000	12.000000	0.135108	0.766102	-8.882621	0.370514	8.000000	0.000000	8.000000
2254	81	The puppy was licked by the kitten.wav	2	passive	1	2	103.000000	2143.000000	2040.000000	2.427165	243.014932	11.000000	5.000000	0.206673	0.825531	-9.603575	0.262560	4.000000	0.000000	3.000000
2254	41	The husband was fed by his wife.wav	2	passive	1	2	139.000000	2750.000000	2611.000000	2.107653	156.118944	7.000000	6.000000	0.280976	0.971821	-0.745712	0.184371	8.000000	1.000000	6.000000
2254	13	The boy is pushed by his sister.wav	2	passive	1	2	46.000000	2128.000000	2082.000000	2.712576	171.035282	6.000000	12.000000	0.154836	1.237460	21.563019	0.419283	11.000000	3.000000	6.000000
2254	33	The chicken was scared by the crow.wav	2	passive	2	1	47.000000	2379.000000	2332.000000	2.034644	152.674745	5.000000	4.000000	0.393990	0.976982	3.854421	0.126100	9.000000	1.000000	7.000000
2254	12	The princess slaps the prince.wav	1	declarative	2	1	48.000000	1499.000000	1451.000000	2.032248	140.017614	10.000000	4.000000	0.364012	1.295715	2.237555	0.497348	4.000000	1.000000	3.000000
2254	49	The panda is colored by the monkey.wav	2	passive	2	1	89.000000	2798.000000	2709.000000	2.186024	184.606635	4.000000	10.000000	0.484345	1.124310	-4.500229	0.094182	10.000000	1.000000	7.000000
2254	58	The baby touches the hamster.wav	1	declarative	1	2	33.000000	2021.000000	1988.000000	2.576173	178.811616	13.000000	29.000000	0.181506	0.689088	-44.744113	0.583995	10.000000	2.000000	8.000000
2254	53	The elephant was washed by the worker.wav	2	passive	2	1	129.000000	1859.000000	1730.000000	2.236706	180.953026	96.000000	13.000000	0.507718	1.225315	-15.998301	1.331940	6.000000	1.000000	4.000000
2254	27	The bird watches the alligator.wav	1	declarative	1	2	31.000000	2039.000000	2008.000000	2.512308	244.935985	6.000000	19.000000	0.268647	1.128245	-1.067364	0.562009	11.000000	0.000000	9.000000
2254	38	The nurse hugs the surgeon.wav	1	declarative	2	1	31.000000	2744.000000	2713.000000	2.426312	222.568993	5.000000	12.000000	0.366029	0.802374	10.841880	0.250012	10.000000	1.000000	8.000000
2311	80	The turtle was carried by the sheep.wav	2	passive	1	2	145.000000	2700.000000	2555.000000	1.833712	103.008681	17.000000	17.000000	0.134417	0.855253	-4.488817	0.199710	12.000000	1.000000	10.000000
2311	38	The cloud hides the sun.wav	1	declarative	1	2	218.000000	16652.000000	16434.000000	1.466421	166.183428	1.000000	-1.000000	0.153536	0.698021	-7.819659	0.000000	2.000000	0.000000	2.000000
2311	49	The kid tickles the mom.wav	1	declarative	1	2	539.000000	3502.000000	2963.000000	1.740552	129.431872	96.000000	8.000000	0.259406	0.783912	-11.387538	1.093393	6.000000	0.000000	5.000000
2311	30	The chef was suprised by the mailman.wav	2	passive	1	2	244.000000	3531.000000	3287.000000	2.012549	127.496147	11.000000	9.000000	0.214294	0.952307	1.944019	0.434797	5.000000	0.000000	4.000000
2311	77	The puppy was licked by the kitten.wav	2	passive	1	2	98.000000	4420.000000	4322.000000	2.037055	176.353320	8.000000	11.000000	0.213820	0.887899	-3.561077	0.032899	8.000000	1.000000	6.000000
2311	37	The grandmother finds the grandson.wav	1	declarative	2	1	354.000000	3175.000000	2821.000000	1.720560	129.342006	14.000000	3.000000	0.208721	0.753687	25.581269	0.209229	2.000000	0.000000	1.000000
2311	23	The husband was fed by his wife.wav	2	passive	1	2	188.000000	4559.000000	4371.000000	2.070084	278.748522	4.000000	10.000000	0.242007	0.894587	-5.483302	0.000400	6.000000	0.000000	5.000000
2311	76	The princess slaps the prince.wav	1	declarative	2	1	279.000000	2119.000000	1840.000000	1.988672	102.162753	96.000000	17.000000	0.260043	1.076039	-17.500624	1.477859	11.000000	3.000000	8.000000
2311	52	The bird watches the alligator.wav	1	declarative	1	2	559.000000	3619.000000	3060.000000	1.987353	115.069293	96.000000	19.000000	0.279823	0.965898	-0.446742	1.412006	9.000000	1.000000	7.000000
2311	46	The panda is colored by the monkey.wav	2	passive	2	1	219.000000	3151.000000	2932.000000	1.974665	120.168117	17.000000	8.000000	0.360867	0.985037	-9.688197	0.137740	7.000000	1.000000	6.000000
2311	65	The boxer is punched by the kangeroo.wav	2	passive	2	1	399.000000	3132.000000	2733.000000	2.201741	116.578100	22.000000	11.000000	0.253907	0.886712	12.442421	0.794461	3.000000	2.000000	1.000000
2311	17	The zebra kicks the horse.wav	1	declarative	1	2	349.000000	1969.000000	1620.000000	2.109610	193.660869	34.000000	9.000000	0.273801	0.917623	-8.098100	0.496014	3.000000	1.000000	1.000000
2311	53	The cat attacks the fireman.wav	1	declarative	1	2	409.000000	2458.000000	2049.000000	2.001004	125.959388	96.000000	7.000000	0.322917	1.049647	7.129361	1.371208	9.000000	1.000000	8.000000
2311	69	The fish eats the fisherman.wav	1	declarative	2	1	369.000000	4742.000000	4373.000000	2.125368	132.501020	7.000000	4.000000	0.275031	0.947866	6.287694	0.000000	4.000000	0.000000	3.000000
2311	59	The dog was bitten by the snake.wav	2	passive	1	2	343.000000	4073.000000	3730.000000	2.341933	133.396915	14.000000	9.000000	0.269616	0.992626	-0.962055	0.476348	8.000000	0.000000	7.000000
2311	75	The daughter kisses the king.wav	1	declarative	1	2	394.000000	2466.000000	2072.000000	2.251015	168.903870	16.000000	21.000000	0.287866	0.838418	-8.441477	0.002214	9.000000	1.000000	8.000000
2311	60	The aunt is assisted by her niece.wav	2	passive	2	1	309.000000	9401.000000	9092.000000	2.188973	174.120255	3.000000	8.000000	0.304488	0.961900	-1.916518	0.000000	3.000000	0.000000	2.000000
2311	51	The chicken was scared by the crow.wav	2	passive	2	1	123.000000	5288.000000	5165.000000	2.125622	228.808523	94.000000	6.000000	0.512629	0.911012	-11.272306	0.969779	6.000000	1.000000	5.000000
2311	62	The baby touches the hamster.wav	1	declarative	1	2	349.000000	3483.000000	3134.000000	2.806087	145.621953	15.000000	12.000000	0.303160	0.943669	1.568662	0.398185	7.000000	1.000000	6.000000
2311	74	The duck was led by the penguin.wav	2	passive	1	2	309.000000	6556.000000	6247.000000	2.260010	302.245004	5.000000	15.000000	0.284562	0.903876	-0.670386	0.003900	6.000000	0.000000	4.000000
2311	73	The pig was followed by the hen.wav	2	passive	2	1	239.000000	6341.000000	6102.000000	2.210706	150.753399	96.000000	19.000000	0.387193	1.073697	-7.414202	1.456939	10.000000	1.000000	8.000000
2311	32	The nurse hugs the surgeon.wav	1	declarative	2	1	389.000000	2885.000000	2496.000000	2.146428	164.045394	96.000000	11.000000	0.440319	1.080260	-7.059989	1.326201	11.000000	1.000000	10.000000
2311	66	The skier was crushed by the snowboard.wav	2	passive	1	2	389.000000	6347.000000	5958.000000	2.187958	205.373862	6.000000	5.000000	0.373754	1.029485	1.747507	0.049306	6.000000	0.000000	5.000000
2311	42	The robber shoots the policeman.wav	1	declarative	2	1	407.000000	4135.000000	3728.000000	2.232919	119.654626	94.000000	10.000000	0.399128	1.067626	-4.761541	1.429624	13.000000	1.000000	12.000000
2311	48	The hero is killed by the robber.wav	2	passive	2	1	450.000000	4979.000000	4529.000000	2.196988	158.134461	9.000000	5.000000	0.380837	1.025458	-0.564562	0.011800	12.000000	0.000000	10.000000
2311	21	The bus hits the motorcycle.wav	1	declarative	2	1	329.000000	6036.000000	5707.000000	2.398537	209.192931	8.000000	6.000000	0.469267	1.222726	-20.392866	0.020766	6.000000	2.000000	4.000000
2385	34	The grandmother finds the grandson.wav	1	declarative	2	1	95.000000	5375.000000	5280.000000	1.564792	237.506481	93.000000	1.000000	0.318822	0.486223	16.659679	0.240794	5.000000	3.000000	1.000000
2385	14	The hero is killed by the robber.wav	2	passive	2	1	108.000000	5351.000000	5243.000000	1.568785	238.280611	96.000000	9.000000	0.269783	0.465483	26.388291	0.377381	5.000000	2.000000	3.000000
2385	68	The fish eats the fisherman.wav	1	declarative	2	1	339.000000	3140.000000	2801.000000	1.613557	319.433327	96.000000	5.000000	0.485409	0.481189	36.420655	0.016391	4.000000	3.000000	1.000000
2385	27	The chicken was scared by the crow.wav	2	passive	2	1	198.000000	2511.000000	2313.000000	1.479708	244.332530	96.000000	4.000000	0.277068	0.452270	33.548007	0.258046	10.000000	9.000000	0.000000
2385	64	The panda is colored by the monkey.wav	2	passive	2	1	169.000000	3625.000000	3456.000000	1.583463	314.965772	96.000000	0.000000	0.476572	0.461618	43.989936	0.008634	4.000000	3.000000	0.000000
2385	20	The puppy was licked by the kitten.wav	2	passive	1	2	129.000000	3931.000000	3802.000000	1.607991	269.947618	96.000000	13.000000	0.344761	0.646143	4.334358	0.258252	3.000000	1.000000	2.000000
2385	19	The dog was bitten by the snake.wav	2	passive	1	2	109.000000	2395.000000	2286.000000	1.270277	199.066493	96.000000	9.000000	0.289509	0.636242	5.331805	0.274944	5.000000	5.000000	0.000000
2385	25	The boy is pushed by his sister.wav	2	passive	1	2	89.000000	2570.000000	2481.000000	1.333393	219.099148	96.000000	4.000000	0.340738	0.624753	7.886770	0.237898	5.000000	3.000000	2.000000
2385	24	The seagull chases the tourist.wav	1	declarative	2	1	969.000000	4320.000000	3351.000000	1.672008	300.921135	96.000000	23.000000	0.479757	0.559612	24.227745	0.167402	14.000000	14.000000	0.000000
2385	74	The tiger lifts the bear.wav	1	declarative	1	2	1389.000000	2579.000000	1190.000000	1.525436	294.784551	96.000000	2.000000	0.312826	0.597538	-17.830132	0.051514	3.000000	3.000000	0.000000
2385	78	The skier was crushed by the snowboard.wav	2	passive	1	2	89.000000	6003.000000	5914.000000	1.717881	291.653684	93.000000	9.000000	0.312867	0.615136	1.305740	0.229112	7.000000	5.000000	2.000000
2385	82	The robber shoots the policeman.wav	1	declarative	2	1	464.000000	2447.000000	1983.000000	1.627087	306.353198	96.000000	14.000000	0.310984	0.568094	23.374034	0.095321	3.000000	1.000000	1.000000
2385	33	The cloud hides the sun.wav	1	declarative	1	2	119.000000	3786.000000	3667.000000	1.454675	146.897964	13.000000	12.000000	0.097723	0.597876	-6.369252	0.040755	5.000000	1.000000	4.000000
2385	23	The husband was fed by his wife.wav	2	passive	1	2	79.000000	3041.000000	2962.000000	1.719608	275.430781	96.000000	4.000000	0.335229	0.714133	3.904258	0.342454	4.000000	2.000000	2.000000
2385	28	The turtle was carried by the sheep.wav	2	passive	1	2	258.000000	3988.000000	3730.000000	1.803655	214.933189	52.000000	19.000000	0.199264	0.684528	23.539016	0.209402	16.000000	11.000000	5.000000
2385	67	The chef was suprised by the mailman.wav	2	passive	1	2	134.000000	2970.000000	2836.000000	1.836729	274.447293	92.000000	11.000000	0.351197	0.784589	17.510341	0.292978	9.000000	7.000000	2.000000
2385	45	The daughter kisses the king.wav	1	declarative	1	2	239.000000	3387.000000	3148.000000	1.560457	162.448893	87.000000	7.000000	0.305770	0.587825	6.241480	0.419866	8.000000	4.000000	4.000000
2385	47	The zebra kicks the horse.wav	1	declarative	1	2	519.000000	3730.000000	3211.000000	1.525375	174.744253	96.000000	4.000000	0.354398	0.611049	-16.089502	0.651654	2.000000	1.000000	0.000000
2385	77	The baby touches the hamster.wav	1	declarative	1	2	48.000000	2651.000000	2603.000000	1.569974	217.372525	96.000000	13.000000	0.305302	0.697062	6.398957	0.483111	6.000000	2.000000	4.000000
2385	15	The boxer is punched by the kangeroo.wav	2	passive	2	1	49.000000	12939.000000	12890.000000	4.050457	297.519172	96.000000	18.000000	0.279352	0.498724	19.559926	2.562861	22.000000	3.000000	18.000000
2385	70	The nurse hugs the surgeon.wav	1	declarative	2	1	199.000000	2432.000000	2233.000000	1.497125	233.201444	96.000000	19.000000	0.397843	0.573603	2.992595	0.331118	10.000000	6.000000	3.000000
2385	63	The cat attacks the fireman.wav	1	declarative	1	2	134.000000	2254.000000	2120.000000	1.667643	237.617778	96.000000	12.000000	0.451559	0.560256	13.619771	0.479554	8.000000	3.000000	5.000000
2385	79	The kid tickles the mom.wav	1	declarative	1	2	47.000000	6164.000000	6117.000000	1.804264	294.484235	96.000000	5.000000	0.465294	0.506282	1.513692	0.331842	1.000000	0.000000	1.000000
2385	17	The elephant was washed by the worker.wav	2	passive	2	1	49.000000	2770.000000	2721.000000	5.320443	398.948889	20.000000	15.000000	0.134467	0.839651	-38.757152	0.245548	11.000000	2.000000	9.000000
2385	57	The aunt is assisted by her niece.wav	2	passive	2	1	31.000000	8043.000000	8012.000000	2.230418	244.609296	3.000000	4.000000	0.504828	1.039260	3.946516	0.067684	8.000000	1.000000	7.000000
2385	53	The pig was followed by the hen.wav	2	passive	2	1	47.000000	3596.000000	3549.000000	2.574314	216.821347	18.000000	8.000000	0.422558	1.113172	-30.876059	0.046404	10.000000	3.000000	7.000000
2385	43	The bird watches the alligator.wav	1	declarative	1	2	334.000000	6613.000000	6279.000000	3.129241	213.556779	93.000000	22.000000	0.396094	0.732348	1.902756	1.838316	8.000000	0.000000	7.000000
2452	34	The boy is pushed by his sister.wav	2	passive	1	2	80.000000	5960.000000	5880.000000	3.369847	205.244964	86.000000	19.000000	0.214365	0.167490	-1.917903	1.022631	11.000000	1.000000	9.000000
2452	18	The cat attacks the fireman.wav	1	declarative	1	2	240.000000	450.000000	210.000000	1.467856	64.387935	85.000000	9.000000	0.231954	0.447557	-37.411381	0.720408	4.000000	4.000000	0.000000
2452	25	The baby touches the hamster.wav	1	declarative	1	2	30.000000	120.000000	90.000000	1.460740	33.660819	69.000000	14.000000	0.109938	0.537729	-23.541749	0.805101	6.000000	1.000000	5.000000
2452	43	The princess slaps the prince.wav	1	declarative	2	1	180.000000	2640.000000	2460.000000	1.626457	135.741492	92.000000	6.000000	0.372703	0.554687	-7.290523	0.520655	3.000000	2.000000	1.000000
2452	50	The cloud hides the sun.wav	1	declarative	1	2	441.000000	2521.000000	2080.000000	1.565138	230.393165	93.000000	2.000000	0.325543	0.641572	3.302303	0.333901	4.000000	1.000000	3.000000
2452	23	The aunt is assisted by her niece.wav	2	passive	2	1	290.000000	470.000000	180.000000	1.158323	67.385381	94.000000	8.000000	0.219135	0.517888	24.707784	0.725126	2.000000	1.000000	1.000000
2452	58	The kid tickles the mom.wav	1	declarative	1	2	100.000000	2450.000000	2350.000000	1.723350	198.367115	96.000000	17.000000	0.256306	0.686584	-10.360704	0.731515	15.000000	3.000000	12.000000
2452	54	The pig was followed by the hen.wav	2	passive	2	1	1880.000000	6530.000000	4650.000000	1.601656	204.815404	96.000000	10.000000	0.353604	0.584364	7.809142	0.577579	11.000000	3.000000	7.000000
2452	53	The robber shoots the policeman.wav	1	declarative	2	1	160.000000	2800.000000	2640.000000	1.625261	138.651428	96.000000	28.000000	0.309200	0.698231	15.983958	0.932003	29.000000	6.000000	23.000000
2452	60	The skier was crushed by the snowboard.wav	2	passive	1	2	170.000000	3401.000000	3231.000000	1.573554	131.360661	89.000000	12.000000	0.273468	0.687669	0.434599	0.587019	11.000000	0.000000	10.000000
2452	64	The puppy was licked by the kitten.wav	2	passive	1	2	120.000000	2870.000000	2750.000000	1.680748	194.035727	94.000000	5.000000	0.319898	0.737885	-0.336042	0.606838	15.000000	1.000000	13.000000
2452	57	The zebra kicks the horse.wav	1	declarative	1	2	2330.000000	2490.000000	160.000000	1.781497	310.276729	96.000000	0.000000	0.276755	0.766111	-13.770175	0.230113	3.000000	1.000000	1.000000
2452	36	The chicken was scared by the crow.wav	2	passive	2	1	70.000000	3780.000000	3710.000000	1.758767	223.506015	96.000000	4.000000	0.348800	0.724527	-9.544148	0.641237	1.000000	1.000000	0.000000
2452	73	The elephant was washed by the worker.wav	2	passive	2	1	2450.000000	4310.000000	1860.000000	1.627210	100.356207	85.000000	9.000000	0.287976	0.747895	3.290752	0.679609	11.000000	0.000000	10.000000
2452	33	The grandmother finds the grandson.wav	1	declarative	2	1	160.000000	3311.000000	3151.000000	1.712163	256.972918	96.000000	10.000000	0.463786	0.612206	-2.063820	0.427298	18.000000	4.000000	12.000000
2452	68	The nurse hugs the surgeon.wav	1	declarative	2	1	180.000000	2850.000000	2670.000000	1.626263	154.568020	96.000000	33.000000	0.365323	0.727257	-3.388735	0.853423	5.000000	5.000000	0.000000
2452	31	The daughter kisses the king.wav	1	declarative	1	2	140.000000	3570.000000	3430.000000	1.764020	246.385300	96.000000	13.000000	0.449315	0.606939	4.072373	0.532093	8.000000	1.000000	6.000000
2452	59	The bird watches the alligator.wav	1	declarative	1	2	160.000000	3050.000000	2890.000000	1.579030	189.012599	96.000000	20.000000	0.329165	0.708092	-6.181530	0.633967	17.000000	6.000000	11.000000
2452	66	The boxer is punched by the kangeroo.wav	2	passive	2	1	70.000000	3931.000000	3861.000000	1.824715	184.726626	90.000000	20.000000	0.324279	0.749332	-5.332159	0.765268	29.000000	4.000000	24.000000
2452	85	The husband was fed by his wife.wav	2	passive	1	2	110.000000	4740.000000	4630.000000	1.855844	155.384995	96.000000	23.000000	0.305580	0.837183	-2.606506	1.078919	22.000000	3.000000	17.000000
2452	42	The tiger lifts the bear.wav	1	declarative	1	2	160.000000	7460.000000	7300.000000	1.681544	244.570668	96.000000	5.000000	0.465294	0.742685	7.901384	0.458691	3.000000	1.000000	2.000000
2452	56	The seagull chases the tourist.wav	1	declarative	2	1	260.000000	4631.000000	4371.000000	1.794221	100.639930	5.000000	22.000000	0.233584	0.774495	17.173980	0.000361	19.000000	1.000000	17.000000
2481	76	The zebra kicks the horse.wav	1	declarative	1	2	1583.000000	2295.000000	712.000000	1.714729	177.303106	80.000000	9.000000	0.277545	0.255154	-51.065032	0.234413	4.000000	2.000000	1.000000
2481	47	The chef was suprised by the mailman.wav	2	passive	1	2	383.000000	3016.000000	2633.000000	1.754097	96.355040	95.000000	24.000000	0.235982	0.651274	13.680925	1.202497	6.000000	3.000000	3.000000
2481	73	The baby touches the hamster.wav	1	declarative	1	2	333.000000	2345.000000	2012.000000	1.537811	140.201975	96.000000	18.000000	0.182242	0.433250	-39.245435	0.836801	23.000000	7.000000	15.000000
2481	85	The panda is colored by the monkey.wav	2	passive	2	1	463.000000	2423.000000	1960.000000	1.794222	61.638254	84.000000	22.000000	0.293782	0.858829	-24.590537	1.007461	12.000000	2.000000	8.000000
2481	61	The skier was crushed by the snowboard.wav	2	passive	1	2	486.000000	3713.000000	3227.000000	1.786637	65.385282	89.000000	21.000000	0.240655	0.742422	-15.074233	1.263131	17.000000	8.000000	9.000000
2481	45	The daughter kisses the king.wav	1	declarative	1	2	394.000000	2826.000000	2432.000000	1.549806	70.383964	96.000000	22.000000	0.236397	0.595350	-9.449435	1.197886	17.000000	5.000000	10.000000
2481	31	The robber shoots the policeman.wav	1	declarative	2	1	598.000000	2339.000000	1741.000000	1.615711	92.981423	74.000000	20.000000	0.208880	0.598268	-0.050907	0.560020	11.000000	5.000000	6.000000
2481	29	The seagull chases the tourist.wav	1	declarative	2	1	448.000000	2057.000000	1609.000000	1.578748	41.052274	36.000000	15.000000	0.112768	0.635375	13.596233	0.405733	20.000000	1.000000	18.000000
2481	27	The elephant was washed by the worker.wav	2	passive	2	1	313.000000	2233.000000	1920.000000	2.031972	69.817222	71.000000	17.000000	0.217071	0.687150	4.587712	0.913916	8.000000	0.000000	8.000000
2481	84	The kid tickles the mom.wav	1	declarative	1	2	488.000000	2373.000000	1885.000000	1.675989	63.070002	96.000000	22.000000	0.179145	0.567720	-43.153592	1.360639	16.000000	14.000000	2.000000
2481	58	The cat attacks the fireman.wav	1	declarative	1	2	457.000000	2910.000000	2453.000000	1.695862	79.818755	67.000000	13.000000	0.197637	0.604516	15.894765	0.505498	5.000000	1.000000	4.000000
2481	38	The dog was bitten by the snake.wav	2	passive	1	2	343.000000	2273.000000	1930.000000	1.908965	62.619589	84.000000	23.000000	0.293521	0.824058	-9.540601	1.227010	12.000000	3.000000	8.000000
2481	59	The boy is pushed by his sister.wav	2	passive	1	2	443.000000	2747.000000	2304.000000	2.107523	94.612267	76.000000	17.000000	0.177140	0.761443	-12.510240	1.327139	16.000000	0.000000	15.000000
2481	30	The princess slaps the prince.wav	1	declarative	2	1	593.000000	2023.000000	1430.000000	1.655480	61.569190	34.000000	24.000000	0.206412	0.734036	27.962232	0.154644	3.000000	2.000000	1.000000
2481	54	The chicken was scared by the crow.wav	2	passive	2	1	294.000000	2938.000000	2644.000000	2.080032	178.404336	92.000000	14.000000	0.470118	0.800587	-2.571506	1.014028	4.000000	0.000000	3.000000
2481	55	The tiger lifts the bear.wav	1	declarative	1	2	454.000000	2448.000000	1994.000000	1.685051	115.957009	78.000000	21.000000	0.218784	0.696925	-13.514114	0.813958	16.000000	2.000000	14.000000
2481	77	The husband was fed by his wife.wav	2	passive	1	2	443.000000	2500.000000	2057.000000	2.262477	64.644495	18.000000	29.000000	0.261804	0.785255	-12.440196	0.012702	6.000000	0.000000	6.000000
2481	20	The duck was led by the penguin.wav	2	passive	1	2	253.000000	3087.000000	2834.000000	2.186752	115.148006	77.000000	19.000000	0.219230	0.904180	7.060931	1.247595	14.000000	2.000000	12.000000
2481	82	The puppy was licked by the kitten.wav	2	passive	1	2	293.000000	3905.000000	3612.000000	3.260665	120.819020	96.000000	23.000000	0.170957	0.901446	-24.734515	2.656570	10.000000	1.000000	9.000000
2481	48	The pig was followed by the hen.wav	2	passive	2	1	568.000000	2904.000000	2336.000000	2.334493	141.366581	91.000000	19.000000	0.377286	0.939653	-8.227672	1.390053	5.000000	0.000000	5.000000
2481	70	The nurse hugs the surgeon.wav	1	declarative	2	1	743.000000	2588.000000	1845.000000	1.948858	62.831026	78.000000	23.000000	0.339063	0.976739	-34.123100	1.133081	4.000000	3.000000	0.000000
2481	23	The cloud hides the sun.wav	1	declarative	1	2	293.000000	1873.000000	1580.000000	1.988238	45.937098	81.000000	24.000000	0.338740	0.919390	12.630458	1.252241	5.000000	2.000000	3.000000
2481	63	The fish eats the fisherman.wav	1	declarative	2	1	473.000000	2298.000000	1825.000000	2.015299	62.626133	90.000000	31.000000	0.370470	0.951292	-17.880328	1.492276	8.000000	2.000000	5.000000
2481	80	The grandmother finds the grandson.wav	1	declarative	2	1	75.000000	3495.000000	3420.000000	2.172418	78.836947	90.000000	28.000000	0.318707	0.967269	10.533106	1.662730	10.000000	0.000000	9.000000
2481	21	The bird watches the alligator.wav	1	declarative	1	2	343.000000	2417.000000	2074.000000	2.567852	84.885811	61.000000	19.000000	0.279056	0.793686	21.106333	1.209956	12.000000	1.000000	10.000000
2481	41	The boxer is punched by the kangeroo.wav	2	passive	2	1	913.000000	2736.000000	1823.000000	2.595994	166.490501	86.000000	17.000000	0.356640	0.969368	9.204648	1.520498	8.000000	5.000000	3.000000
2481	36	The bus hits the motorcycle.wav	1	declarative	2	1	274.000000	1894.000000	1620.000000	2.807486	136.993244	79.000000	21.000000	0.540200	1.088416	-34.475435	1.253518	13.000000	6.000000	7.000000
2481	15	The turtle was carried by the sheep.wav	2	passive	1	2	288.000000	2228.000000	1940.000000	3.271594	157.900153	92.000000	29.000000	0.314438	0.870429	4.222411	2.151218	7.000000	1.000000	6.000000
2649	45	The seagull chases the tourist.wav	1	declarative	2	1	129.000000	3659.000000	3530.000000	18.145210	286.062169	27.000000	40.000000	0.439968	2.088485	88.915583	4.976374	17.000000	1.000000	16.000000
2649	43	The grandmother finds the grandson.wav	1	declarative	2	1	244.000000	2434.000000	2190.000000	5.640401	134.455765	12.000000	24.000000	0.198784	0.763113	46.672976	0.118937	8.000000	1.000000	7.000000
2649	58	The panda is colored by the monkey.wav	2	passive	2	1	329.000000	3656.000000	3327.000000	7.784067	199.028735	75.000000	38.000000	0.227614	0.842345	-1.172557	4.596562	14.000000	1.000000	13.000000
2649	27	The elephant was washed by the worker.wav	2	passive	2	1	139.000000	2009.000000	1870.000000	2.994013	165.597646	96.000000	16.000000	0.134482	0.549234	3.416886	2.166025	8.000000	1.000000	7.000000
2649	31	The chef was suprised by the mailman.wav	2	passive	1	2	49.000000	2627.000000	2578.000000	2.154844	168.341094	96.000000	33.000000	0.162202	0.380581	-66.034633	1.313139	16.000000	2.000000	13.000000
2649	84	The chicken was scared by the crow.wav	2	passive	2	1	189.000000	1919.000000	1730.000000	2.218507	195.183726	96.000000	23.000000	0.133264	0.443456	7.546734	1.242588	13.000000	2.000000	11.000000
2649	74	The hero is killed by the robber.wav	2	passive	2	1	47.000000	209.000000	162.000000	1.411723	43.063258	84.000000	16.000000	0.199574	0.578246	12.876515	0.811618	4.000000	4.000000	0.000000
2649	30	The turtle was carried by the sheep.wav	2	passive	1	2	279.000000	2238.000000	1959.000000	2.446721	192.459361	96.000000	18.000000	0.257396	0.486434	-20.923215	1.484424	8.000000	1.000000	7.000000
2649	36	The puppy was licked by the kitten.wav	2	passive	1	2	239.000000	2308.000000	2069.000000	3.580955	225.709116	96.000000	26.000000	0.291517	0.359083	44.981759	2.452410	8.000000	0.000000	8.000000
2649	38	The princess slaps the prince.wav	1	declarative	2	1	138.000000	2098.000000	1960.000000	4.468212	206.263090	95.000000	21.000000	0.352487	0.919974	-86.376025	3.381562	9.000000	1.000000	7.000000
